"Time (s)","Acceleration x (m/s^2)","Acceleration y (m/s^2)","Acceleration z (m/s^2)"
4.061212000E-3,5.550750256E0,-4.864010334E0,7.323233604E0
1.407381600E-2,5.713462353E0,-4.782654285E0,7.308876991E0
2.406386800E-2,5.689534187E0,-4.662415028E0,7.399804115E0
3.402699300E-2,5.474180222E0,-4.624129772E0,7.466803074E0
4.401704500E-2,5.105087280E0,-4.729413986E0,7.505686283E0
5.388324300E-2,4.827519894E0,-4.657629490E0,7.606184959E0
6.387329500E-2,4.702494621E0,-4.451846600E0,7.615756035E0
7.386339900E-2,4.726422787E0,-4.217350006E0,7.534400463E0
8.370454500E-2,4.837090969E0,-4.068396568E0,7.505686283E0
9.369459700E-2,4.966303349E0,-4.116253376E0,7.567899704E0
1.036847010E-1,4.995017052E0,-4.380061626E0,7.682755470E0
1.135408990E-1,4.923232555E0,-4.801796913E0,7.677969456E0
1.235310030E-1,4.856233597E0,-5.333601475E0,7.572685242E0
1.335210560E-1,4.793421745E0,-5.553741455E0,7.615756035E0
1.433480350E-1,4.601995945E0,-5.395814896E0,7.510472298E0
1.533380870E-1,4.420141697E0,-5.108078003E0,7.433303356E0
1.633281910E-1,4.310071945E0,-4.830510616E0,7.520043373E0
1.731701180E-1,4.146761417E0,-4.652843475E0,7.630113125E0
1.831602220E-1,4.103690624E0,-4.571487427E0,7.687541008E0
1.931502740E-1,4.334000111E0,-4.748556614E0,7.706683636E0
2.029669930E-1,4.702494621E0,-5.026721954E0,7.625327587E0
2.129570450E-1,4.966303349E0,-5.170291424E0,7.577471256E0
2.229471490E-1,5.100301266E0,-5.122435093E0,7.428517818E0
2.327725140E-1,4.971088886E0,-5.065007210E0,7.318448067E0
2.427625660E-1,4.635495663E0,-4.931009293E0,7.409375191E0
2.527526700E-1,4.213760853E0,-4.777868748E0,7.520043373E0
2.626025140E-1,4.012763500E0,-4.676771641E0,7.539186001E0
2.725926180E-1,4.084548473E0,-4.676771641E0,7.558328629E0
2.825826700E-1,4.343571186E0,-4.816154003E0,7.563114166E0
2.924282950E-1,4.726422787E0,-4.902295589E0,7.495516777E0
3.024183990E-1,5.057230473E0,-4.830510616E0,7.423732281E0
3.124084510E-1,5.243870735E0,-4.657629490E0,7.342376232E0
3.222134510E-1,5.224728107E0,-4.475774765E0,7.227520943E0
3.322035030E-1,5.085944653E0,-4.461417675E0,7.117451191E0
3.421936080E-1,4.750350952E0,-4.652843475E0,7.002595425E0
3.520331390E-1,4.381856441E0,-4.998008251E0,7.060023308E0
3.620231910E-1,4.170690060E0,-5.203791142E0,7.232306480E0
3.720132950E-1,4.161118507E0,-5.021936417E0,7.299305439E0
3.818514200E-1,4.343571186E0,-4.691128731E0,7.227520943E0
3.918414720E-1,4.659423828E0,-4.303491592E0,7.146164894E0
4.018315760E-1,4.846662045E0,-3.886542082E0,6.963712215E0
4.116557430E-1,4.899304390E0,-3.594019651E0,6.820142746E0
4.216458470E-1,4.846662045E0,-3.479164124E0,6.705287457E0
4.316358990E-1,4.640281200E0,-3.838685751E0,6.628716946E0
4.414752740E-1,4.310071945E0,-4.437489510E0,6.657430649E0
4.514653260E-1,4.003192425E0,-4.811367989E0,6.743572235E0
4.614554310E-1,3.859622955E0,-4.916652203E0,6.724429607E0
4.713136600E-1,3.864408493E0,-4.883152962E0,6.662216663E0
4.813037640E-1,4.046263218E0,-4.581058979E0,6.600003242E0
4.912938160E-1,4.189832687E0,-4.197608948E0,6.537789822E0
5.010968890E-1,4.271188259E0,-3.867399693E0,6.393621922E0
5.110869410E-1,4.362713814E0,-3.771686792E0,6.442076683E0
5.210770450E-1,4.324428558E0,-4.020540237E0,6.623931408E0
5.309373580E-1,4.295714855E0,-4.528416634E0,6.714858532E0
5.409174100E-1,4.386641979E0,-5.079364300E0,6.901498795E0
5.508973580E-1,4.525425911E0,-5.290530682E0,7.031309128E0
5.607305870E-1,4.621138573E0,-4.954937458E0,7.012166977E0
5.707105870E-1,4.702494621E0,-4.394418716E0,7.026523590E0
5.806905870E-1,4.793421745E0,-3.905684710E0,7.074379921E0
5.905698060E-1,4.856233597E0,-3.670589924E0,7.093522549E0
6.005497530E-1,4.980660439E0,-3.829114437E0,7.117451191E0
6.105297530E-1,5.239085197E0,-4.461417675E0,7.112665176E0
6.203510030E-1,5.455037594E0,-5.189434052E0,7.150950432E0
6.303309510E-1,5.392824173E0,-5.496313572E0,7.217949390E0
6.403109510E-1,5.133800983E0,-5.170291424E0,7.261020184E0
6.501935560E-1,4.625924587E0,-4.547559261E0,7.280162811E0
6.601736080E-1,4.122833252E0,-4.039682865E0,7.409375191E0
6.701535560E-1,4.103690624E0,-3.757329702E0,7.505686283E0
6.800088680E-1,4.707280159E0,-3.651447296E0,7.438089371E0
6.899888680E-1,5.526822090E0,-3.838685751E0,7.395018578E0
6.999688680E-1,6.183053493E0,-4.025325775E0,7.356733322E0
7.097991280E-1,6.178267956E0,-4.054039955E0,7.251449108E0
7.197791280E-1,5.464608669E0,-4.049253941E0,7.323233604E0
7.297591280E-1,4.396213531E0,-3.929612875E0,7.275377274E0
7.396374100E-1,3.567100286E0,-3.924827337E0,7.064808846E0
7.496174100E-1,3.284747362E0,-4.073182583E0,7.189235687E0
7.595974100E-1,3.538386583E0,-4.058825493E0,7.342376232E0
7.694160030E-1,4.261617184E0,-3.939184189E0,7.227520943E0
7.793960030E-1,5.267798901E0,-3.733401537E0,7.083951473E0
7.893759510E-1,5.982056618E0,-3.603590965E0,6.983452797E0
7.992705350E-1,6.120840549E0,-3.690330744E0,6.867999077E0
8.092505870E-1,5.694319725E0,-3.857828379E0,6.824928284E0
8.192305350E-1,5.062016487E0,-3.929612875E0,6.993024349E0
8.290872010E-1,4.802993298E0,-3.991826296E0,7.050451756E0
8.390672010E-1,5.014159679E0,-4.106681824E0,7.069594383E0
8.490472010E-1,5.522036552E0,-4.197608948E0,7.261020184E0
8.589034510E-1,5.910272121E0,-4.149752617E0,7.184450150E0
8.688834510E-1,6.005984783E0,-3.958326817E0,7.160521984E0
8.788634510E-1,5.622535229E0,-3.685544968E0,7.122236729E0
8.886899620E-1,4.870590687E0,-3.617947817E0,6.939784050E0
8.986699620E-1,4.362713814E0,-3.742972851E0,7.060023308E0
9.086499100E-1,4.041477680E0,-3.833899975E0,7.351947784E0
9.185226700E-1,3.806980848E0,-3.881756544E0,7.534400463E0
9.285026180E-1,3.830909014E0,-3.977469444E0,7.725826263E0
9.384826180E-1,4.141975880E0,-3.853042603E0,7.572685242E0
9.483039200E-1,4.678566456E0,-3.685544968E0,7.174878597E0
9.582839200E-1,5.330012321E0,-3.560520172E0,6.906284332E0
9.682638680E-1,5.871388435E0,-3.637090445E0,6.738786697E0
9.781257950E-1,6.116054535E0,-3.867399693E0,6.877570629E0
9.881057950E-1,5.823532104E0,-3.977469444E0,7.222734928E0
9.980857430E-1,4.985445976E0,-4.063611031E0,7.505686283E0
1.007942149E0,4.055834293E0,-3.991826296E0,7.912466049E0
1.017922149E0,3.552743435E0,-3.503092289E0,8.281558990E0
1.027902097E0,3.624528170E0,-3.187239647E0,7.926823139E0
1.037749806E0,4.491926193E0,-3.067000389E0,7.673183918E0
1.047721264E0,5.651248932E0,-3.043072224E0,7.572685242E0
1.057692774E0,6.388836384E0,-2.956930637E0,7.428517818E0
1.067595899E0,6.542575359E0,-3.019144058E0,7.313662529E0
1.077567358E0,6.092126369E0,-3.311666489E0,7.481160164E0
1.087538868E0,5.253442287E0,-3.685544968E0,7.438089371E0
1.097376108E0,4.668995380E0,-4.168895245E0,7.366304398E0
1.107347566E0,4.343571186E0,-4.418346882E0,7.500302792E0
1.117319076E0,4.453640938E0,-4.255635262E0,7.610970497E0
1.127222097E0,4.975874901E0,-3.891327858E0,7.855038643E0
1.137193556E0,5.612963676E0,-3.450450182E0,8.008178711E0
1.147165066E0,6.087340832E0,-2.937788010E0,7.610970497E0
1.157004493E0,6.254838467E0,-2.813361168E0,7.265805721E0
1.166975951E0,6.230910301E0,-3.081357241E0,7.409375191E0
1.176947462E0,5.718247890E0,-3.445664644E0,7.385447025E0
1.186819806E0,4.999803066E0,-3.939184189E0,7.591827869E0
1.196791264E0,4.697709084E0,-4.313062668E0,7.778468132E0
1.206762774E0,4.668995380E0,-4.600201607E0,7.515257835E0
1.216668503E0,4.827519894E0,-4.346562386E0,7.428517818E0
1.226639962E0,5.388038158E0,-3.953541279E0,7.510472298E0
1.236611472E0,5.996413708E0,-3.809971809E0,7.534400463E0
1.246447514E0,6.173482418E0,-3.670589924E0,7.481160164E0
1.256418972E0,6.187839508E0,-3.622733593E0,7.529614449E0
1.266390483E0,6.135197163E0,-3.886542082E0,7.768897057E0
1.276256108E0,6.192625046E0,-4.092324734E0,8.181060791E0
1.286227566E0,6.302694798E0,-4.001397610E0,8.367700577E0
1.296199076E0,6.106483459E0,-3.996612072E0,8.137989998E0
1.306079597E0,5.823532104E0,-3.733401537E0,8.042277336E0
1.316051056E0,5.455037594E0,-2.755933523E0,8.348558426E0
1.326022566E0,5.388038158E0,-2.976073265E0,7.505686283E0
1.335905222E0,4.875376225E0,-3.215953588E0,7.630113125E0
1.345876681E0,4.793421745E0,-3.498306751E0,7.802396297E0
1.355848191E0,5.359324455E0,-3.800400496E0,7.764111042E0
1.365716056E0,6.068198204E0,-3.824328899E0,7.716254711E0
1.375687514E0,6.466004848E0,-3.637090445E0,7.878966808E0
1.385659024E0,6.619145870E0,-3.479164124E0,8.181060791E0
1.395527253E0,6.475576401E0,-3.273381472E0,8.252845764E0
1.405498712E0,5.991627693E0,-3.263810158E0,8.343772888E0
1.415470222E0,5.229514122E0,-3.670589924E0,8.161917686E0
1.425344285E0,4.506283283E0,-3.829114437E0,8.472985268E0
1.435315743E0,4.391427994E0,-3.833899975E0,8.578866959E0
1.445287253E0,4.802993298E0,-3.709473372E0,8.520841599E0
1.455161628E0,5.464608669E0,-3.464807272E0,8.693722725E0
1.465133087E0,6.101697922E0,-3.100499868E0,8.602795601E0
1.475104597E0,6.499504566E0,-2.851646423E0,8.118846893E0
1.484964910E0,6.566503525E0,-2.688934565E0,7.989036560E0
1.494936368E0,6.600003242E0,-2.549552441E0,8.228917122E0
1.504907878E0,6.633502483E0,-2.587837696E0,8.047062874E0
1.514789701E0,6.643074036E0,-2.937788010E0,7.778468132E0
1.524761160E0,6.422336102E0,-3.426522017E0,8.085348129E0
1.534732670E0,5.493322372E0,-3.805186272E0,8.228917122E0
1.544603035E0,4.697709084E0,-3.905684710E0,7.883752346E0
1.554567878E0,4.563711166E0,-3.972683907E0,7.826324463E0
1.564532722E0,4.764708042E0,-4.034897327E0,8.027321815E0
1.574427983E0,5.291727066E0,-3.843471289E0,8.080561638E0
1.584392826E0,6.049055576E0,-3.536591768E0,8.114061356E0
1.594357670E0,6.547360897E0,-3.268595695E0,8.276773453E0
1.604238712E0,6.714858532E0,-3.014358282E0,8.310273170E0
1.614203556E0,6.805785656E0,-2.913859844E0,8.070990562E0
1.624168399E0,6.753143787E0,-3.143570662E0,7.744968891E0
1.634053295E0,6.388836384E0,-3.345165968E0,7.955537319E0
1.644018139E0,6.010770321E0,-3.527020693E0,8.391629219E0
1.653982983E0,5.785246849E0,-3.646661758E0,8.693722725E0
1.663842462E0,5.593821049E0,-3.488735437E0,9.067003250E0
1.673807306E0,5.584249973E0,-3.052643538E0,9.215956688E0
1.683772201E0,5.813961029E0,-2.732005358E0,8.976076126E0
1.693680691E0,5.977271080E0,-2.775076151E0,8.703293800E0
1.703645535E0,6.178267956E0,-3.019144058E0,8.598010063E0
1.713610378E0,6.456433773E0,-3.393022537E0,8.559126854E0
1.723470639E0,6.681358814E0,-3.656233072E0,8.305487633E0
1.733435431E0,6.729215622E0,-3.857828379E0,8.085348129E0
1.743400326E0,6.432505608E0,-3.829114437E0,7.941180229E0
1.753287566E0,5.766104221E0,-3.464807272E0,8.003393173E0
1.763252410E0,5.009374142E0,-3.038286448E0,7.993822098E0
1.773217253E0,4.827519894E0,-2.794218540E0,7.917252064E0
1.783109493E0,5.243870735E0,-2.746362209E0,7.874181271E0
1.793074285E0,5.636891842E0,-2.870789051E0,7.955537319E0
1.803039128E0,5.785246849E0,-3.129213810E0,8.032107353E0
1.812938035E0,5.723033428E0,-3.340380430E0,8.003393173E0
1.822902878E0,5.483751297E0,-3.474378586E0,7.974679470E0
1.832867722E0,5.129015446E0,-3.464807272E0,7.850253105E0
1.842752253E0,4.851448059E0,-3.450450182E0,7.663612843E0
1.852717097E0,4.798207760E0,-3.479164124E0,7.668398380E0
1.862681941E0,4.971088886E0,-3.388236761E0,7.917252064E0
1.872577253E0,5.344369411E0,-3.148954630E0,8.027321815E0
1.882542097E0,5.732604980E0,-2.947359324E0,8.008178711E0
1.892506941E0,5.977271080E0,-3.043072224E0,8.070990562E0
1.902373816E0,5.953342915E0,-3.254238844E0,8.161917686E0
1.912338608E0,5.794818401E0,-3.440878868E0,8.157132149E0
1.922303451E0,5.488536835E0,-3.589233875E0,7.950751305E0
1.932195691E0,5.028516769E0,-3.637090445E0,7.912466049E0
1.942160535E0,4.735994339E0,-3.651447296E0,8.036892891E0
1.952125378E0,4.702494621E0,-3.402593851E0,7.950751305E0
1.961999285E0,4.913661480E0,-3.124428272E0,7.993822098E0
1.971964128E0,5.243870735E0,-3.000001431E0,8.056633949E0
1.981928972E0,5.703890800E0,-3.067000389E0,7.998608112E0
1.991816993E0,6.106483459E0,-3.259024382E0,8.104490280E0
2.001781837E0,6.101697922E0,-3.335594654E0,8.300702095E0
2.011746681E0,5.837889194E0,-3.292523861E0,8.032107353E0
2.021635691E0,5.416752338E0,-3.326023579E0,7.721040249E0
2.031600483E0,4.942375183E0,-3.440878868E0,7.859824181E0
2.041565326E0,4.659423828E0,-3.378665686E0,8.042277336E0
2.051458087E0,4.668995380E0,-3.187239647E0,7.883752346E0
2.061417618E0,5.071587563E0,-2.933002472E0,7.821538925E0
2.071377201E0,5.421537876E0,-2.674577475E0,7.697112083E0
2.081233399E0,5.541179180E0,-2.775076151E0,7.399804115E0
2.091192983E0,5.545964718E0,-3.244667530E0,7.582256794E0
2.101152514E0,5.421537876E0,-3.503092289E0,7.936394691E0
2.111085951E0,5.219942570E0,-3.632304668E0,7.912466049E0
2.121045535E0,5.157729149E0,-3.786043644E0,7.931608677E0
2.131005066E0,5.143372059E0,-3.800400496E0,8.133204460E0
2.140884597E0,5.071587563E0,-3.493520975E0,8.171489716E0
2.150844181E0,5.076373100E0,-3.148954630E0,7.912466049E0
2.160803712E0,5.253442287E0,-3.086143017E0,7.945965767E0
2.170691628E0,5.239085197E0,-3.196810961E0,8.075776100E0
2.180651212E0,5.119443893E0,-3.345165968E0,7.989036560E0
2.190610743E0,5.210371494E0,-3.680759430E0,7.912466049E0
2.200494545E0,5.364109993E0,-4.063611031E0,7.917252064E0
2.210454128E0,5.565107346E0,-4.231706619E0,8.003393173E0
2.220413660E0,5.675177097E0,-4.001397610E0,7.893323898E0
2.230319493E0,5.608178139E0,-3.560520172E0,7.874181271E0
2.240279076E0,5.148158073E0,-3.129213810E0,8.027321815E0
2.250238608E0,4.630710125E0,-3.043072224E0,8.161917686E0
2.260141941E0,4.477569580E0,-3.450450182E0,8.147561073E0
2.270101524E0,4.688137531E0,-4.101896286E0,7.979465485E0
2.280061056E0,5.196014404E0,-4.734199524E0,7.859824181E0
2.289967983E0,5.550750256E0,-4.974080086E0,7.768897057E0
2.299927566E0,5.522036552E0,-4.600201607E0,7.543971539E0
2.309887097E0,5.296513081E0,-4.020540237E0,7.332805157E0
2.319786056E0,4.980660439E0,-3.493520975E0,7.375875950E0
2.329745639E0,4.716851711E0,-3.259024382E0,7.520043373E0
2.339705170E0,4.549354076E0,-3.378665686E0,7.606184959E0
2.349571993E0,4.712066174E0,-3.867399693E0,7.582256794E0
2.359531576E0,5.042873859E0,-4.413561344E0,7.677969456E0
2.369491108E0,5.124229908E0,-4.600201607E0,7.802396297E0
2.379403399E0,5.042873859E0,-4.490131855E0,7.553543091E0
2.389362983E0,4.928018093E0,-4.289134502E0,7.213163853E0
2.399322514E0,4.788636208E0,-4.125824451E0,7.064808846E0
2.409189181E0,4.501497746E0,-4.063611031E0,7.198806763E0
2.419148764E0,4.391427994E0,-4.097110748E0,7.409375191E0
2.429108295E0,4.625924587E0,-4.217350006E0,7.548757076E0
2.439005847E0,4.995017052E0,-4.284348965E0,7.596613884E0
2.448965431E0,5.383252621E0,-4.356133461E0,7.539186001E0
2.458924962E0,5.488536835E0,-4.279563427E0,7.404589653E0
2.468836316E0,5.416752338E0,-4.082753658E0,7.442874908E0
2.478795899E0,5.272584915E0,-3.948755503E0,7.347161770E0
2.488755431E0,5.014159679E0,-3.910470486E0,7.275377274E0
2.498660951E0,4.894518852E0,-4.025325775E0,7.356733322E0
2.508620535E0,4.904089928E0,-4.111467361E0,7.265805721E0
2.518580066E0,4.798207760E0,-4.207180500E0,7.079165936E0
2.528482670E0,4.616353035E0,-4.470989227E0,7.016952515E0
2.538442253E0,4.472783566E0,-4.604987144E0,6.915855408E0
2.548401785E0,4.463212490E0,-4.466203690E0,6.805785656E0
2.558263920E0,4.568496704E0,-4.293920040E0,6.714858532E0
2.568219024E0,4.664209366E0,-3.972683907E0,6.628716946E0
2.578174128E0,4.621138573E0,-3.613162279E0,6.561717987E0
2.588075170E0,4.496711731E0,-3.359523058E0,6.542575359E0
2.598030274E0,4.319643021E0,-3.225524902E0,6.374479294E0
2.607985378E0,4.199403763E0,-3.211168051E0,6.288337708E0
2.617901264E0,4.146761417E0,-3.225524902E0,6.317051888E0
2.627856420E0,3.984049797E0,-3.316452265E0,6.297909260E0
2.637811524E0,3.850051641E0,-3.498306751E0,6.369693756E0
2.647710222E0,3.830909014E0,-3.690330744E0,6.437291145E0
2.657665274E0,3.773481369E0,-3.766901016E0,6.317051888E0
2.667620431E0,3.638885021E0,-3.665804386E0,6.259624004E0
2.677546837E0,3.677170277E0,-3.651447296E0,6.092126369E0
2.687501941E0,3.907479286E0,-3.728615999E0,5.943771362E0
2.697457045E0,4.189832687E0,-3.963112593E0,6.005984783E0
2.707346420E0,4.280759811E0,-4.202394962E0,6.063412666E0
2.717301576E0,4.261617184E0,-4.408775806E0,6.149554253E0
2.727256681E0,4.218546391E0,-4.437489510E0,6.398407936E0
2.737166212E0,4.165904045E0,-4.111467361E0,6.647859573E0
2.747121368E0,4.286143780E0,-3.833899975E0,6.738786697E0
2.757076472E0,4.587639332E0,-3.766901016E0,6.628716946E0
2.766996785E0,5.042873859E0,-3.953541279E0,6.537789822E0
2.776951889E0,5.291727066E0,-4.211966038E0,6.604788780E0
2.786906993E0,5.200799942E0,-4.480560303E0,6.911069870E0
2.796778399E0,4.908875465E0,-4.514060020E0,7.371089935E0
2.806733451E0,4.654638290E0,-4.365705013E0,7.548757076E0
2.816688556E0,4.597210407E0,-4.178466320E0,7.706683636E0
2.826615847E0,4.779065132E0,-4.025325775E0,7.802396297E0
2.836571003E0,5.167300701E0,-3.876971006E0,7.677969456E0
2.846526108E0,5.775675774E0,-3.728615999E0,7.677969456E0
2.856437618E0,6.211767673E0,-3.589233875E0,7.874181271E0
2.866392722E0,6.269195557E0,-3.522234917E0,7.845467091E0
2.876347826E0,6.082555294E0,-3.661018610E0,7.711469173E0
2.886244128E0,5.593821049E0,-3.996612072E0,7.706683636E0
2.896199233E0,5.138586521E0,-4.461417675E0,7.730611801E0
2.906154337E0,5.009374142E0,-4.921437740E0,7.673183918E0
2.916062045E0,5.210371494E0,-5.189434052E0,7.539186001E0
2.926017149E0,5.469394207E0,-5.179862976E0,7.457231998E0
2.935972253E0,5.507679462E0,-4.787439823E0,7.534400463E0
2.945848608E0,5.291727066E0,-4.164109707E0,7.524828911E0
2.955803712E0,4.990231514E0,-3.637090445E0,7.385447025E0
2.965758816E0,4.721637249E0,-3.364308596E0,7.313662529E0
2.975684285E0,4.611567497E0,-3.416950703E0,7.098308563E0
2.985639441E0,4.601995945E0,-3.771686792E0,6.815357208E0
2.995594545E0,4.740779877E0,-4.173680782E0,6.805785656E0
3.005475795E0,4.817948341E0,-4.432703972E0,6.762714863E0
3.015430847E0,4.745565414E0,-4.509274483E0,6.537789822E0
3.025386003E0,4.549354076E0,-4.356133461E0,6.451648235E0
3.035319389E0,4.252045631E0,-4.101896286E0,6.403193474E0
3.045274493E0,3.940979004E0,-3.824328899E0,6.288337708E0
3.055229597E0,3.835694790E0,-3.646661758E0,6.197410583E0
3.065139545E0,3.806980848E0,-3.627519131E0,6.226124287E0
3.075091368E0,3.850051641E0,-3.790829182E0,6.293123722E0
3.085043191E0,4.022335052E0,-4.106681824E0,6.230910301E0
3.094932149E0,4.256831646E0,-4.413561344E0,6.221338749E0
3.104883972E0,4.482355118E0,-4.571487427E0,6.168696880E0
3.114835795E0,4.621138573E0,-4.432703972E0,6.120840549E0
3.124751003E0,4.534996986E0,-4.097110748E0,6.135197163E0
3.134702826E0,4.247260094E0,-3.843471289E0,6.350551128E0
3.144654649E0,3.873979807E0,-3.699902058E0,6.470790863E0
3.154583191E0,3.696312666E0,-3.762115479E0,6.393621922E0
3.164535014E0,3.859622955E0,-4.034897327E0,6.393621922E0
3.174486837E0,4.314857483E0,-4.226921082E0,6.518647194E0
3.184391993E0,4.951946259E0,-4.207180500E0,6.748358250E0
3.194343816E0,5.258227825E0,-3.824328899E0,6.714858532E0
3.204295639E0,4.899304390E0,-3.359523058E0,6.690930367E0
3.214188868E0,4.266402721E0,-3.095714331E0,6.872784615E0
3.224140691E0,3.768695593E0,-2.971287489E0,6.958926678E0
3.234092514E0,3.614956856E0,-3.081357241E0,6.963712215E0
3.244009441E0,4.094119549E0,-3.550948858E0,6.805785656E0
3.253961264E0,5.071587563E0,-4.188037872E0,6.600003242E0
3.263913087E0,5.723033428E0,-4.394418716E0,6.638288021E0
3.273831576E0,5.507679462E0,-4.073182583E0,6.762714863E0
3.283783399E0,4.870590687E0,-3.690330744E0,7.127022266E0
3.293735222E0,4.525425911E0,-3.464807272E0,7.332805157E0
3.303647670E0,4.611567497E0,-3.225524902E0,7.471588612E0
3.313599493E0,5.076373100E0,-3.297309637E0,7.601399422E0
3.323551316E0,5.986842155E0,-3.805186272E0,7.582256794E0
3.333464441E0,6.542575359E0,-4.135395527E0,7.524828911E0
3.343416264E0,6.216553211E0,-4.034897327E0,7.404589653E0
3.353368087E0,5.296513081E0,-3.915256023E0,7.284948349E0
3.363279545E0,4.434498787E0,-3.867399693E0,7.438089371E0
3.373231368E0,4.252045631E0,-3.886542082E0,7.658827305E0
3.383183243E0,4.415356159E0,-3.738187075E0,7.802396297E0
3.393053608E0,5.219942570E0,-3.565305710E0,7.936394691E0
3.403005483E0,6.590431690E0,-3.670589924E0,8.128418922E0
3.412957306E0,7.500900745E0,-3.598805189E0,8.085348129E0
3.422903503E0,7.131807804E0,-3.326023579E0,7.654041290E0
3.432855326E0,6.168696880E0,-3.235096216E0,7.855038643E0
3.442807149E0,5.282155991E0,-3.431307554E0,8.036892891E0
3.452705222E0,4.554139614E0,-3.886542082E0,8.022536278E0
3.462656993E0,4.530211449E0,-4.269991875E0,8.382058144E0
3.472608868E0,5.100301266E0,-4.423132420E0,8.477770805E0
3.482501733E0,5.737390518E0,-4.284348965E0,8.367700577E0
3.492453556E0,6.168696880E0,-3.824328899E0,7.926823139E0
3.502405378E0,6.259624004E0,-3.220739365E0,7.304090977E0
3.512345743E0,5.689534187E0,-2.837289333E0,7.476374149E0
3.522297566E0,4.822733879E0,-2.602194548E0,7.716254711E0
3.532249389E0,4.343571186E0,-2.655434847E0,7.821538925E0
3.542151524E0,4.420141697E0,-2.913859844E0,8.224131584E0
3.552103347E0,5.450251579E0,-3.244667530E0,8.626724243E0
3.562055170E0,6.566503525E0,-3.393022537E0,8.655437469E0
3.571974701E0,6.934998035E0,-3.297309637E0,8.362915039E0
3.581923764E0,6.714858532E0,-3.354737282E0,7.764111042E0
3.591872774E0,5.809175014E0,-3.661018610E0,7.423732281E0
3.601760378E0,4.908875465E0,-3.862613916E0,7.591827869E0
3.611709441E0,4.673780918E0,-3.905684710E0,7.859824181E0
3.621658503E0,5.038087845E0,-3.824328899E0,8.047062874E0
3.631581941E0,5.794818401E0,-3.393022537E0,8.449056625E0
3.641530951E0,6.317051888E0,-2.789433002E0,8.684151649E0
3.651480014E0,6.355337143E0,-2.319841623E0,8.544769287E0
3.661400691E0,5.982056618E0,-2.056032896E0,8.200202942E0
3.671349701E0,5.364109993E0,-2.243271112E0,7.850253105E0
3.681298764E0,4.856233597E0,-2.866003275E0,7.587042332E0
3.691203816E0,4.587639332E0,-3.680759430E0,7.663612843E0
3.701152878E0,4.861019135E0,-4.293920040E0,7.912466049E0
3.711101941E0,5.334797859E0,-4.394418716E0,8.353343964E0
3.721047722E0,5.536393166E0,-3.819543123E0,8.712865829E0
3.730996733E0,5.794818401E0,-3.100499868E0,8.559126854E0
3.740945847E0,6.317051888E0,-2.765504837E0,7.960322857E0
3.750829128E0,6.571289062E0,-2.822932482E0,7.725826263E0
3.760778191E0,6.422336102E0,-3.105285645E0,7.802396297E0
3.770727253E0,6.034698486E0,-3.416950703E0,7.869395256E0
3.780671524E0,5.627320766E0,-3.733401537E0,8.036892891E0
3.790620535E0,5.402395248E0,-3.881756544E0,8.209774017E0
3.800569597E0,5.368896008E0,-3.781257868E0,8.042277336E0
3.810451733E0,5.569892883E0,-3.488735437E0,7.634898663E0
3.820400795E0,5.780461311E0,-3.278167009E0,7.189235687E0
3.830349858E0,5.876173973E0,-3.172882795E0,7.083951473E0
3.840268972E0,5.790032387E0,-3.201596737E0,7.337590694E0
3.850218035E0,5.589035511E0,-3.340380430E0,7.759325504E0
3.860167097E0,5.660820007E0,-3.450450182E0,8.133204460E0
3.870082358E0,6.025127411E0,-3.517449379E0,8.027321815E0
3.880031420E0,6.345765591E0,-3.574877024E0,7.869395256E0
3.889980483E0,6.307480335E0,-3.402593851E0,7.673183918E0
3.899910170E0,5.880959988E0,-3.047857761E0,7.308876991E0
3.909859233E0,5.435894966E0,-2.899502754E0,7.189235687E0
3.919808295E0,5.243870735E0,-2.880360365E0,7.476374149E0
3.929720847E0,5.023731232E0,-2.894717216E0,7.773682594E0
3.939669910E0,4.985445976E0,-2.990430117E0,7.831110477E0
3.949618972E0,5.330012321E0,-3.110071182E0,7.821538925E0
3.959560743E0,5.775675774E0,-3.129213810E0,7.855038643E0
3.969509753E0,5.929414749E0,-3.043072224E0,7.596613884E0
3.979458816E0,5.891129494E0,-2.985644341E0,7.591827869E0
3.989343920E0,5.775675774E0,-2.870789051E0,7.807182312E0
3.999292983E0,5.737390518E0,-2.760719061E0,7.773682594E0
4.009242045E0,5.938985825E0,-2.732005358E0,7.835896015E0
4.019158087E0,6.173482418E0,-2.794218540E0,8.056633949E0
4.029107149E0,6.135197163E0,-3.129213810E0,7.898109436E0
4.039056212E0,5.929414749E0,-3.622733593E0,7.902894974E0
4.049001160E0,5.799603939E0,-3.776472330E0,8.109275818E0
4.058950222E0,5.660820007E0,-3.570091486E0,8.295916557E0
4.068899233E0,5.675177097E0,-3.287738323E0,8.305487633E0
4.078789128E0,5.880959988E0,-2.923431158E0,8.343772888E0
4.088735847E0,6.092126369E0,-2.597409010E0,8.382058144E0
4.098682618E0,6.288337708E0,-2.492124796E0,8.636295319E0
4.108619858E0,6.412764549E0,-2.578266382E0,9.033503532E0
4.118566576E0,6.523432732E0,-2.755933523E0,9.110074043E0
4.128513347E0,6.604788780E0,-3.081357241E0,9.081359863E0
4.138429285E0,6.571289062E0,-3.393022537E0,9.110074043E0
4.148376003E0,6.446862221E0,-3.402593851E0,8.918647766E0
4.158322774E0,6.283552170E0,-3.076571703E0,8.799007416E0
4.168253816E0,6.130411625E0,-2.717648268E0,8.779864311E0
4.178200535E0,6.025127411E0,-2.410768747E0,8.856434822E0
4.188147306E0,5.833103180E0,-2.324627161E0,8.813364029E0
4.198076316E0,5.502893925E0,-2.592623234E0,8.842078209E0
4.208023035E0,5.402395248E0,-2.923431158E0,8.822935104E0
4.217969806E0,5.713462353E0,-3.230310678E0,8.362915039E0
4.227859233E0,6.206982136E0,-3.719044685E0,8.209774017E0
4.237805951E0,6.561717987E0,-3.953541279E0,8.276773453E0
4.247752722E0,6.647859573E0,-3.613162279E0,8.017750740E0
4.257694858E0,6.523432732E0,-3.033500910E0,8.012965202E0
4.267641576E0,6.149554253E0,-2.727219582E0,8.157132149E0
4.277588347E0,5.598606586E0,-2.703291416E0,8.405985832E0
4.287483920E0,5.205585480E0,-2.875574589E0,8.746364594E0
4.297430639E0,5.018945694E0,-3.292523861E0,8.535198212E0
4.307377410E0,5.081159115E0,-3.838685751E0,8.176275253E0
4.317329233E0,5.315655708E0,-4.087539196E0,7.960322857E0
4.327275951E0,5.493322372E0,-4.030111313E0,7.649255753E0
4.337222722E0,5.756533146E0,-3.704687595E0,7.490731239E0
4.347107931E0,6.058627129E0,-3.278167009E0,7.730611801E0
4.357054649E0,6.020341873E0,-2.894717216E0,7.941180229E0
4.367001420E0,5.742176056E0,-2.741576433E0,8.123632431E0
4.376933347E0,5.531607628E0,-2.904288530E0,8.482556343E0
4.386880066E0,5.219942570E0,-3.158525944E0,8.477770805E0
4.396826837E0,5.057230473E0,-3.330809116E0,8.300702095E0
4.406756316E0,5.047659397E0,-3.373879910E0,7.883752346E0
4.416703035E0,5.100301266E0,-3.090928555E0,7.711469173E0
4.426649806E0,5.339583874E0,-2.617149830E0,7.701898098E0
4.436593243E0,5.684748173E0,-2.271985054E0,7.668398380E0
4.446539962E0,5.905486107E0,-2.214557409E0,7.673183918E0
4.456486733E0,5.813961029E0,-2.477767944E0,7.658827305E0
4.466399076E0,5.407180786E0,-2.990430117E0,7.625327587E0
4.476345795E0,4.908875465E0,-3.474378586E0,7.831110477E0
4.486292566E0,4.664209366E0,-3.762115479E0,7.926823139E0
4.496188608E0,4.597210407E0,-3.814757586E0,7.792825222E0
4.506135326E0,4.861019135E0,-3.790829182E0,7.859824181E0
4.516082097E0,5.272584915E0,-3.565305710E0,7.941180229E0
4.526000274E0,5.459823132E0,-3.038286448E0,7.869395256E0
4.535946993E0,5.478965759E0,-2.612364054E0,7.644470215E0
4.545893764E0,5.464608669E0,-2.641077995E0,7.529614449E0
4.555810587E0,5.378467083E0,-2.913859844E0,7.529614449E0
4.565757306E0,5.277370453E0,-3.287738323E0,7.466803074E0
4.575704076E0,5.263013363E0,-3.685544968E0,7.505686283E0
4.585636628E0,5.325226784E0,-3.857828379E0,7.663612843E0
4.595581681E0,5.416752338E0,-3.651447296E0,7.721040249E0
4.605526681E0,5.713462353E0,-3.201596737E0,7.711469173E0
4.615450274E0,5.915057659E0,-2.909074068E0,7.711469173E0
4.625395326E0,5.924628735E0,-2.861217737E0,7.811967850E0
4.635340326E0,5.809175014E0,-2.961716175E0,7.888537884E0
4.645280795E0,5.474180222E0,-3.105285645E0,7.606184959E0
4.655225795E0,5.181657314E0,-3.259024382E0,7.390232563E0
4.665170847E0,5.157729149E0,-3.617947817E0,7.500302792E0
4.675098347E0,5.334797859E0,-3.953541279E0,7.563114166E0
4.685043399E0,5.713462353E0,-4.168895245E0,7.433303356E0
4.694988399E0,6.001199245E0,-4.063611031E0,7.433303356E0
4.704895795E0,5.861817360E0,-3.507878065E0,7.567899704E0
4.714840847E0,5.320441246E0,-3.014358282E0,7.610970497E0
4.724785847E0,4.769493580E0,-2.904288530E0,7.749754429E0
4.734722566E0,4.563711166E0,-3.230310678E0,7.898109436E0
4.744667618E0,4.621138573E0,-3.665804386E0,7.716254711E0
4.754612618E0,4.846662045E0,-4.082753658E0,7.558328629E0
4.764531264E0,5.181657314E0,-4.447061062E0,7.189235687E0
4.774476264E0,5.622535229E0,-4.504488468E0,6.872784615E0
4.784421316E0,5.880959988E0,-4.207180500E0,6.963712215E0
4.794357983E0,5.809175014E0,-3.781257868E0,7.131807804E0
4.804303035E0,5.378467083E0,-3.594019651E0,7.217949390E0
4.814248035E0,4.673780918E0,-3.550948858E0,7.515257835E0
4.824142566E0,4.223331928E0,-3.661018610E0,7.874181271E0
4.834087618E0,4.329214573E0,-3.987040758E0,7.706683636E0
4.844032618E0,4.889732838E0,-4.303491592E0,7.495516777E0
4.853985587E0,5.502893925E0,-4.408775806E0,7.308876991E0
4.863930639E0,5.938985825E0,-4.073182583E0,7.083951473E0
4.873875639E0,6.015556335E0,-3.498306751E0,6.896713257E0
4.883797566E0,5.732604980E0,-3.062214851E0,6.872784615E0
4.893742618E0,5.090730190E0,-3.023929596E0,6.988238335E0
4.903687618E0,4.506283283E0,-3.488735437E0,7.174878597E0
4.913614910E0,4.400999069E0,-4.154538155E0,7.318448067E0
4.923559910E0,4.630710125E0,-4.719842434E0,7.337590694E0
4.933504962E0,5.018945694E0,-4.873581409E0,7.304090977E0
4.943408920E0,5.243870735E0,-4.499702930E0,7.328019142E0
4.953353972E0,5.196014404E0,-3.723830223E0,7.103094101E0
4.963298972E0,4.995017052E0,-3.019144058E0,6.963712215E0
4.973228087E0,4.913661480E0,-2.650649309E0,6.872784615E0
4.983173087E0,4.966303349E0,-2.703291416E0,6.896713257E0
4.993118139E0,5.076373100E0,-3.278167009E0,7.002595425E0
5.003049285E0,5.167300701E0,-4.082753658E0,7.007380962E0
5.012994337E0,5.052444935E0,-4.552345276E0,6.997809887E0
5.022939285E0,4.530211449E0,-4.542773724E0,6.930212498E0
5.032852670E0,3.902693748E0,-4.106681824E0,6.867999077E0
5.042797722E0,3.485744476E0,-3.450450182E0,6.743572235E0
5.052742722E0,3.528815269E0,-2.956930637E0,6.623931408E0
5.062685066E0,3.893122435E0,-2.765504837E0,6.499504566E0
5.072630118E0,4.132404804E0,-2.827718258E0,6.403193474E0
5.082575118E0,4.189832687E0,-3.110071182E0,6.350551128E0
5.092470587E0,4.074976921E0,-3.378665686E0,6.297909260E0
5.102414181E0,3.859622955E0,-3.714258909E0,6.364908218E0
5.112357826E0,3.787838221E0,-4.025325775E0,6.293123722E0
5.122275951E0,3.859622955E0,-4.197608948E0,6.149554253E0
5.132219597E0,4.012763500E0,-4.437489510E0,6.168696880E0
5.142163191E0,4.122833252E0,-4.595416069E0,6.178267956E0
5.152096628E0,4.208974838E0,-4.403990269E0,6.245266914E0
5.162040274E0,4.271188259E0,-4.168895245E0,6.528218269E0
5.171983868E0,4.256831646E0,-4.073182583E0,6.676573277E0
5.181919076E0,4.415356159E0,-4.217350006E0,6.762714863E0
5.191862722E0,4.616353035E0,-4.552345276E0,6.801000118E0
5.201806264E0,4.716851711E0,-4.859224796E0,6.839285374E0
5.211745326E0,4.865804672E0,-4.840082169E0,7.074379921E0
5.221688920E0,4.870590687E0,-4.442275047E0,7.256234646E0
5.231632566E0,4.822733879E0,-4.034897327E0,7.438089371E0
5.241563087E0,4.856233597E0,-3.848257065E0,7.591827869E0
5.251506733E0,4.937589645E0,-3.900899172E0,7.553543091E0
5.261450326E0,5.057230473E0,-4.101896286E0,7.423732281E0
5.271363399E0,5.224728107E0,-4.341776848E0,7.270591736E0
5.281307045E0,5.320441246E0,-4.470989227E0,7.390232563E0
5.291250639E0,5.196014404E0,-4.289134502E0,7.615756035E0
5.301166837E0,4.980660439E0,-4.020540237E0,7.668398380E0
5.311110483E0,4.947160721E0,-3.896113396E0,7.711469173E0
5.321054076E0,4.985445976E0,-4.001397610E0,7.639684677E0
5.330983295E0,5.052444935E0,-4.356133461E0,7.452445984E0
5.340926941E0,5.263013363E0,-4.724628448E0,7.356733322E0
5.350870535E0,5.407180786E0,-4.849653244E0,7.299305439E0
5.360791993E0,5.488536835E0,-4.518845558E0,7.323233604E0
5.370735639E0,5.431109428E0,-4.001397610E0,7.395018578E0
5.380679233E0,5.157729149E0,-3.527020693E0,7.380661488E0
5.390615483E0,4.793421745E0,-3.206382275E0,7.438089371E0
5.400559128E0,4.640281200E0,-3.138785124E0,7.442874908E0
5.410502722E0,4.707280159E0,-3.287738323E0,7.308876991E0
5.420436993E0,4.899304390E0,-3.637090445E0,7.261020184E0
5.430380639E0,5.033302307E0,-3.953541279E0,7.064808846E0
5.440324233E0,5.023731232E0,-4.149752617E0,6.748358250E0
5.450265170E0,4.846662045E0,-4.121038914E0,6.518647194E0
5.460208764E0,4.396213531E0,-3.857828379E0,6.528218269E0
5.470152410E0,3.945764542E0,-3.608376503E0,6.590431690E0
5.480075587E0,3.725026608E0,-3.527020693E0,6.499504566E0
5.490019233E0,3.821337700E0,-3.641875982E0,6.412764549E0
5.499962826E0,4.280759811E0,-3.943969965E0,6.264409542E0
5.509866681E0,4.999803066E0,-4.197608948E0,6.192625046E0
5.519810326E0,5.392824173E0,-4.144967079E0,6.321837425E0
5.529753920E0,5.205585480E0,-3.752544165E0,6.523432732E0
5.539700691E0,4.458426952E0,-3.397808075E0,6.595217228E0
5.549644337E0,3.658027649E0,-3.206382275E0,6.619145870E0
5.559587931E0,3.256033421E0,-3.244667530E0,6.537789822E0
5.569519962E0,3.452244759E0,-3.565305710E0,6.576074600E0
5.579463556E0,4.103690624E0,-4.144967079E0,6.643074036E0
5.589407201E0,4.856233597E0,-4.719842434E0,6.801000118E0
5.599303295E0,5.229514122E0,-4.892724037E0,6.844070911E0
5.609245743E0,5.028516769E0,-4.628915310E0,6.772286415E0
5.619188295E0,4.568496704E0,-4.092324734E0,6.978667259E0
5.629126472E0,4.065405846E0,-3.536591768E0,7.246663570E0
5.639068920E0,3.931407690E0,-3.105285645E0,7.495516777E0
5.649011368E0,4.334000111E0,-2.990430117E0,7.615756035E0
5.658967566E0,4.956732273E0,-3.402593851E0,7.500302792E0
5.668910066E0,5.598606586E0,-4.077968121E0,7.395018578E0
5.678852566E0,5.790032387E0,-4.289134502E0,7.213163853E0
5.688778816E0,5.502893925E0,-3.838685751E0,7.356733322E0
5.698721264E0,5.081159115E0,-3.211168051E0,7.711469173E0
5.708663764E0,4.707280159E0,-2.822932482E0,7.802396297E0
5.718605743E0,4.837090969E0,-2.621935368E0,7.878966808E0
5.728548243E0,5.450251579E0,-2.688934565E0,7.874181271E0
5.738490691E0,6.106483459E0,-3.143570662E0,7.721040249E0
5.748409806E0,6.504290104E0,-3.771686792E0,7.601399422E0
5.758352253E0,6.202196121E0,-4.173680782E0,7.587042332E0
5.768294753E0,5.402395248E0,-4.192823410E0,7.759325504E0
5.778199389E0,4.683351994E0,-3.920041800E0,7.764111042E0
5.788141785E0,4.348356724E0,-3.646661758E0,7.730611801E0
5.798084285E0,4.482355118E0,-3.259024382E0,7.979465485E0
5.808037670E0,5.301298618E0,-2.928216696E0,8.080561638E0
5.817980118E0,6.211767673E0,-2.760719061E0,7.855038643E0
5.827922618E0,6.724429607E0,-2.765504837E0,7.625327587E0
5.837821681E0,6.791429043E0,-3.057429075E0,7.500302792E0
5.847764128E0,6.192625046E0,-3.488735437E0,7.481160164E0
5.857706681E0,5.315655708E0,-3.958326817E0,7.754539967E0
5.867628087E0,4.783850670E0,-4.236492634E0,8.142775536E0
5.877570535E0,4.904089928E0,-4.279563427E0,8.291130066E0
5.887513035E0,5.421537876E0,-4.202394962E0,8.204988480E0
5.897457826E0,6.044270039E0,-3.948755503E0,7.974679470E0
5.907400222E0,6.442076683E0,-3.349951744E0,7.759325504E0
5.917342722E0,6.374479294E0,-2.708076954E0,7.792825222E0
5.927266108E0,5.962913990E0,-2.305484533E0,7.989036560E0
5.937208608E0,5.574678421E0,-2.420340061E0,8.295916557E0
5.947151056E0,5.416752338E0,-3.033500910E0,8.439485550E0
5.957105014E0,5.742176056E0,-3.896113396E0,8.243273735E0
5.967047462E0,6.202196121E0,-4.523631096E0,8.267202377E0
5.976989962E0,6.269195557E0,-4.451846600E0,8.319844246E0
5.986886420E0,5.948556900E0,-3.747758389E0,8.104490280E0
5.996828868E0,5.474180222E0,-2.837289333E0,7.831110477E0
6.006771368E0,5.114658356E0,-2.276770830E0,7.797610760E0
6.016718920E0,4.937589645E0,-2.185843468E0,7.993822098E0
6.026661368E0,4.889732838E0,-2.496910334E0,8.185846329E0
6.036603868E0,5.129015446E0,-3.071786165E0,7.993822098E0
6.046542670E0,5.565107346E0,-3.594019651E0,7.835896015E0
6.056485170E0,5.833103180E0,-3.814757586E0,7.850253105E0
6.066427618E0,5.953342915E0,-3.536591768E0,7.654041290E0
6.076340951E0,6.020341873E0,-2.971287489E0,7.548757076E0
6.086283347E0,5.943771362E0,-2.324627161E0,7.582256794E0
6.096225899E0,5.785246849E0,-1.950748682E0,7.697112083E0
6.106144962E0,5.651248932E0,-2.051247120E0,7.902894974E0
6.116086524E0,5.531607628E0,-2.463410854E0,8.099704742E0
6.126028087E0,5.344369411E0,-3.095714331E0,8.066205025E0
6.135994181E0,5.286941528E0,-3.752544165E0,7.883752346E0
6.145935795E0,5.310869694E0,-4.121038914E0,7.682755470E0
6.155877410E0,5.459823132E0,-4.030111313E0,7.529614449E0
6.165807149E0,5.770890236E0,-3.570091486E0,7.558328629E0
6.175748712E0,6.183053493E0,-2.933002472E0,7.596613884E0
6.185690326E0,6.470790863E0,-2.444268227E0,7.452445984E0
6.195591576E0,6.523432732E0,-2.157129526E0,7.529614449E0
6.205533139E0,6.211767673E0,-2.271985054E0,7.663612843E0
6.215474701E0,5.531607628E0,-2.942573547E0,7.620542049E0
6.225408399E0,5.085944653E0,-3.805186272E0,7.773682594E0
6.235349962E0,5.167300701E0,-4.303491592E0,7.740182877E0
6.245291576E0,5.459823132E0,-4.269991875E0,7.606184959E0
6.255234389E0,5.915057659E0,-3.867399693E0,7.658827305E0
6.265176003E0,6.254838467E0,-3.292523861E0,7.543971539E0
6.275117566E0,6.264409542E0,-2.688934565E0,7.658827305E0
6.285062566E0,6.202196121E0,-2.348555326E0,7.859824181E0
6.295004128E0,6.044270039E0,-2.386840582E0,7.979465485E0
6.304945743E0,5.861817360E0,-2.779861689E0,7.936394691E0
6.314853972E0,5.732604980E0,-3.474378586E0,7.831110477E0
6.324795535E0,5.727818966E0,-3.920041800E0,7.893323898E0
6.334737097E0,5.679962635E0,-3.853042603E0,7.802396297E0
6.344667097E0,5.574678421E0,-3.326023579E0,7.553543091E0
6.354608712E0,5.455037594E0,-2.674577475E0,7.524828911E0
6.364550326E0,5.196014404E0,-2.209771633E0,7.821538925E0
6.374474649E0,4.980660439E0,-2.104487419E0,7.893323898E0
6.384416264E0,5.071587563E0,-2.487339020E0,7.811967850E0
6.394357878E0,5.531607628E0,-3.023929596E0,8.017750740E0
6.404326472E0,6.068198204E0,-3.124428272E0,8.233702660E0
6.414268087E0,6.302694798E0,-2.956930637E0,8.166703224E0
6.424209649E0,6.250052929E0,-2.679363251E0,8.070990562E0
6.434126472E0,6.092126369E0,-2.458625317E0,7.960322857E0
6.444068087E0,5.842674732E0,-2.386840582E0,7.811967850E0
6.454009649E0,5.603392601E0,-2.477767944E0,7.907680511E0
6.463919962E0,5.545964718E0,-2.712862730E0,8.200202942E0
6.473861524E0,5.713462353E0,-2.937788010E0,8.295916557E0
6.483803139E0,6.116054535E0,-3.133999348E0,8.429914474E0
6.493762826E0,6.461219311E0,-3.100499868E0,8.516056061E0
6.503704389E0,6.576074600E0,-2.861217737E0,8.453842163E0
6.513646003E0,6.513861656E0,-2.573480844E0,8.334200859E0
6.523575535E0,6.403193474E0,-2.386840582E0,8.348558426E0
6.533517149E0,6.283552170E0,-2.501696110E0,8.224131584E0
6.543458712E0,6.206982136E0,-2.947359324E0,8.003393173E0
6.553393399E0,5.996413708E0,-3.373879910E0,7.950751305E0
6.563335014E0,5.790032387E0,-3.364308596E0,8.061419487E0
6.573276576E0,5.703890800E0,-3.047857761E0,8.257631302E0
6.583180587E0,5.708676815E0,-2.559123755E0,8.396414757E0
6.593122201E0,5.790032387E0,-2.224128723E0,8.472985268E0
6.603063816E0,5.866602898E0,-2.204986095E0,8.377271652E0
6.612983712E0,5.986842155E0,-2.492124796E0,8.276773453E0
6.622924649E0,6.250052929E0,-2.885145903E0,8.190631866E0
6.632865483E0,6.580860615E0,-3.330809116E0,8.080561638E0
6.642806837E0,6.686144829E0,-3.714258909E0,7.998608112E0
6.652747722E0,6.537789822E0,-3.704687595E0,8.118846893E0
6.662688660E0,5.910272121E0,-3.263810158E0,8.161917686E0
6.672654701E0,5.085944653E0,-2.626721144E0,8.061419487E0
6.682595587E0,4.668995380E0,-2.190629244E0,8.070990562E0
6.692536472E0,4.735994339E0,-2.022533417E0,8.090133667E0
6.702450743E0,5.196014404E0,-2.200200319E0,7.955537319E0
6.712391576E0,5.823532104E0,-2.722434044E0,7.989036560E0
6.722332462E0,6.509075642E0,-3.330809116E0,7.998608112E0
6.732243451E0,6.872784615E0,-3.886542082E0,7.682755470E0
6.742184389E0,6.647859573E0,-4.058825493E0,7.802396297E0
6.752125222E0,5.991627693E0,-3.627519131E0,8.017750740E0
6.762054701E0,5.196014404E0,-3.014358282E0,7.792825222E0
6.771995587E0,4.664209366E0,-2.641077995E0,7.744968891E0
6.781936524E0,4.587639332E0,-2.688934565E0,7.864609718E0
6.791886003E0,4.999803066E0,-2.933002472E0,7.792825222E0
6.801826837E0,5.579464436E0,-3.110071182E0,7.974679470E0
6.811767722E0,6.135197163E0,-3.364308596E0,7.831110477E0
6.821705326E0,6.638288021E0,-3.709473372E0,7.563114166E0
6.831646212E0,6.494719028E0,-3.680759430E0,7.452445984E0
6.841587045E0,5.900700569E0,-3.445664644E0,7.428517818E0
6.851493660E0,5.143372059E0,-3.182454109E0,7.356733322E0
6.861434597E0,4.659423828E0,-2.842075109E0,7.495516777E0
6.871375431E0,4.582853794E0,-2.698505640E0,7.701898098E0
6.881317514E0,4.918447018E0,-2.803789854E0,7.778468132E0
6.891258399E0,5.306084156E0,-2.985644341E0,7.677969456E0
6.901199337E0,5.550750256E0,-3.220739365E0,7.572685242E0
6.911155587E0,5.689534187E0,-3.373879910E0,7.452445984E0
6.921096420E0,5.852245808E0,-3.483949661E0,7.385447025E0
6.931037306E0,5.996413708E0,-3.460021496E0,7.337590694E0
6.940960066E0,6.063412666E0,-3.345165968E0,7.261020184E0
6.950900899E0,6.025127411E0,-3.033500910E0,7.371089935E0
6.960841785E0,5.891129494E0,-2.626721144E0,7.788039684E0
6.970763139E0,5.852245808E0,-2.415554523E0,7.998608112E0
6.980704076E0,6.001199245E0,-2.587837696E0,7.922037601E0
6.990644962E0,6.250052929E0,-3.028715372E0,7.673183918E0
7.000607149E0,6.340980053E0,-3.517449379E0,7.476374149E0
7.010548035E0,5.958128452E0,-3.733401537E0,7.490731239E0
7.020488920E0,5.411966801E0,-3.603590965E0,7.606184959E0
7.030391472E0,5.076373100E0,-3.263810158E0,7.596613884E0
7.040332358E0,5.148158073E0,-2.913859844E0,7.601399422E0
7.050273243E0,5.536393166E0,-2.842075109E0,7.630113125E0
7.060233035E0,5.915057659E0,-3.009572744E0,7.485945702E0
7.070173868E0,5.991627693E0,-3.105285645E0,7.390232563E0
7.080114753E0,5.818746567E0,-3.235096216E0,7.371089935E0
7.090039962E0,5.536393166E0,-3.378665686E0,7.442874908E0
7.099980847E0,5.224728107E0,-3.397808075E0,7.821538925E0
7.109921733E0,5.119443893E0,-3.440878868E0,8.142775536E0
7.119823764E0,5.243870735E0,-3.560520172E0,8.003393173E0
7.129764076E0,5.455037594E0,-3.598805189E0,7.888537884E0
7.139704389E0,5.464608669E0,-3.431307554E0,7.855038643E0
7.149642514E0,5.325226784E0,-3.086143017E0,7.625327587E0
7.159582826E0,5.205585480E0,-2.765504837E0,7.539186001E0
7.169523139E0,5.248656273E0,-2.765504837E0,7.596613884E0
7.179465170E0,5.450251579E0,-3.052643538E0,7.687541008E0
7.189405483E0,5.675177097E0,-3.460021496E0,7.907680511E0
7.199345795E0,5.641677380E0,-3.762115479E0,7.926823139E0
7.209286837E0,5.339583874E0,-3.848257065E0,7.922037601E0
7.219227149E0,4.884947300E0,-3.781257868E0,7.797610760E0
7.229167462E0,4.606781960E0,-3.651447296E0,7.735397339E0
7.239117931E0,4.750350952E0,-3.622733593E0,7.773682594E0
7.249058243E0,5.109872818E0,-3.714258909E0,7.682755470E0
7.258998503E0,5.502893925E0,-3.728615999E0,7.721040249E0
7.268902774E0,5.732604980E0,-3.632304668E0,7.859824181E0
7.278843087E0,5.579464436E0,-3.546163082E0,7.792825222E0
7.288783399E0,5.176871777E0,-3.512663603E0,7.859824181E0
7.298739962E0,4.904089928E0,-3.503092289E0,8.042277336E0
7.308680274E0,4.908875465E0,-3.719044685E0,8.012965202E0
7.318620587E0,5.119443893E0,-4.130609989E0,7.955537319E0
7.328526472E0,5.373681545E0,-4.437489510E0,7.845467091E0
7.338466785E0,5.656034470E0,-4.403990269E0,7.749754429E0
7.348407097E0,5.679962635E0,-4.192823410E0,7.548757076E0
7.358346368E0,5.488536835E0,-3.958326817E0,7.423732281E0
7.368286681E0,5.052444935E0,-3.598805189E0,7.428517818E0
7.378226993E0,4.568496704E0,-3.436093330E0,7.543971539E0
7.388151993E0,4.477569580E0,-3.527020693E0,7.778468132E0
7.398092306E0,4.740779877E0,-3.675375462E0,7.912466049E0
7.408032618E0,5.028516769E0,-3.867399693E0,7.850253105E0
7.417980639E0,5.224728107E0,-4.001397610E0,7.673183918E0
7.427920951E0,5.282155991E0,-4.015754700E0,7.490731239E0
7.437861264E0,5.248656273E0,-3.953541279E0,7.280162811E0
7.447808972E0,5.129015446E0,-3.905684710E0,7.074379921E0
7.457749233E0,4.841876507E0,-4.082753658E0,7.069594383E0
7.467689597E0,4.539782524E0,-4.447061062E0,7.165307522E0
7.477634597E0,4.525425911E0,-4.738985062E0,7.308876991E0
7.487574910E0,4.582853794E0,-4.768297195E0,7.294519901E0
7.497515170E0,4.506283283E0,-4.614558697E0,7.174878597E0
7.507405118E0,4.463212490E0,-4.149752617E0,7.083951473E0
7.517345431E0,4.357928276E0,-3.440878868E0,7.093522549E0
7.527285743E0,4.237689018E0,-3.028715372E0,7.141379356E0
7.537234649E0,4.261617184E0,-2.985644341E0,7.131807804E0
7.547174962E0,4.415356159E0,-3.187239647E0,7.141379356E0
7.557115274E0,4.592424870E0,-3.594019651E0,7.150950432E0
7.567070170E0,4.525425911E0,-3.819543123E0,7.107879639E0
7.577010431E0,4.213760853E0,-3.699902058E0,7.045666218E0
7.586950795E0,3.787838221E0,-3.517449379E0,6.925426960E0
7.596853868E0,3.509672642E0,-3.369094372E0,6.724429607E0
7.606794181E0,3.495315790E0,-3.192025423E0,6.590431690E0
7.616734493E0,3.610171080E0,-2.956930637E0,6.638288021E0
7.626675431E0,3.830909014E0,-2.837289333E0,6.757929325E0
7.636615378E0,4.027120590E0,-2.971287489E0,6.738786697E0
7.646555274E0,4.003192425E0,-3.431307554E0,6.633502483E0
7.656502149E0,3.969692707E0,-3.977469444E0,6.556932449E0
7.666442097E0,4.046263218E0,-4.226921082E0,6.513861656E0
7.676381993E0,4.122833252E0,-4.192823410E0,6.446862221E0
7.686319493E0,4.305285931E0,-4.130609989E0,6.384050846E0
7.696259441E0,4.482355118E0,-4.082753658E0,6.331408501E0
7.706199337E0,4.477569580E0,-4.159324169E0,6.288337708E0
7.716141628E0,4.487140656E0,-4.346562386E0,6.571289062E0
7.726081576E0,4.582853794E0,-4.643272400E0,6.791429043E0
7.736021472E0,4.764708042E0,-4.892724037E0,6.906284332E0
7.745956524E0,5.028516769E0,-4.959722996E0,7.165307522E0
7.755896472E0,5.210371494E0,-4.748556614E0,7.299305439E0
7.765836368E0,5.263013363E0,-4.365705013E0,7.280162811E0
7.775755066E0,5.344369411E0,-4.058825493E0,7.390232563E0
7.785694962E0,5.397609711E0,-3.790829182E0,7.510472298E0
7.795634858E0,5.368896008E0,-3.637090445E0,7.606184959E0
7.805584701E0,5.388038158E0,-3.819543123E0,7.744968891E0
7.815524649E0,5.459823132E0,-4.188037872E0,7.697112083E0
7.825464545E0,5.334797859E0,-4.609772682E0,7.500302792E0
7.835365014E0,5.224728107E0,-5.002793789E0,7.524828911E0
7.845304910E0,5.157729149E0,-5.103292465E0,7.481160164E0
7.855244806E0,5.143372059E0,-4.873581409E0,7.328019142E0
7.865175378E0,5.267798901E0,-4.509274483E0,7.452445984E0
7.875115326E0,5.315655708E0,-4.159324169E0,7.649255753E0
7.885055170E0,5.301298618E0,-3.886542082E0,7.721040249E0
7.894996212E0,5.359324455E0,-3.819543123E0,7.811967850E0
7.904936108E0,5.215157032E0,-4.039682865E0,7.711469173E0
7.914876003E0,5.105087280E0,-4.432703972E0,7.490731239E0
7.924823764E0,5.038087845E0,-4.657629490E0,7.328019142E0
7.934763712E0,4.856233597E0,-4.514060020E0,7.289734364E0
7.944703608E0,4.554139614E0,-4.159324169E0,7.261020184E0
7.954658868E0,4.266402721E0,-3.781257868E0,7.217949390E0
7.964598816E0,4.094119549E0,-3.460021496E0,7.237092018E0
7.974538712E0,4.175475597E0,-3.268595695E0,7.241877556E0
7.984471785E0,4.367499352E0,-3.259024382E0,7.179664135E0
7.994411733E0,4.558925152E0,-3.369094372E0,7.093522549E0
8.004351628E0,4.654638290E0,-3.546163082E0,6.844070911E0
8.014279910E0,4.573282242E0,-3.685544968E0,6.595217228E0
8.024219806E0,4.405784607E0,-3.661018610E0,6.461219311E0
8.034159701E0,4.175475597E0,-3.555734396E0,6.336194515E0
8.044084285E0,4.007977962E0,-3.493520975E0,6.288337708E0
8.054024233E0,4.046263218E0,-3.598805189E0,6.250052929E0
8.063964128E0,4.208974838E0,-3.776472330E0,6.125626087E0
8.073911108E0,4.324428558E0,-4.058825493E0,6.058627129E0
8.083851056E0,4.305285931E0,-4.207180500E0,6.144768715E0
8.093790951E0,4.027120590E0,-3.996612072E0,6.197410583E0
8.103697774E0,3.653241873E0,-3.670589924E0,6.355337143E0
8.113637670E0,3.447459221E0,-3.493520975E0,6.547360897E0
8.123577566E0,3.552743435E0,-3.632304668E0,6.566503525E0
8.133538191E0,4.094119549E0,-4.144967079E0,6.528218269E0
8.143477826E0,4.865804672E0,-4.835296154E0,6.824928284E0
8.153417462E0,5.301298618E0,-5.002793789E0,7.237092018E0
8.163357931E0,5.143372059E0,-4.298706055E0,7.294519901E0
8.173297566E0,4.616353035E0,-3.416950703E0,7.342376232E0
8.183237201E0,4.065405846E0,-2.966501951E0,7.447660446E0
8.193164858E0,3.768695593E0,-2.856431961E0,7.304090977E0
8.203104545E0,3.931407690E0,-3.043072224E0,7.515257835E0
8.213044128E0,4.673780918E0,-3.646661758E0,7.778468132E0
8.222960639E0,5.526822090E0,-4.101896286E0,7.811967850E0
8.232900274E0,6.015556335E0,-4.168895245E0,7.625327587E0
8.242839910E0,5.646463394E0,-3.728615999E0,7.452445984E0
8.252797826E0,4.759922504E0,-3.052643538E0,7.654041290E0
8.262737462E0,4.156332970E0,-2.477767944E0,7.893323898E0
8.272677097E0,4.300500393E0,-2.181057930E0,7.902894974E0
8.282621003E0,5.066802025E0,-2.295913219E0,7.634898663E0
8.292560587E0,6.120840549E0,-2.827718258E0,7.577471256E0
8.302500222E0,6.753143787E0,-3.498306751E0,7.404589653E0
8.312391420E0,6.585646152E0,-4.265206337E0,7.074379921E0
8.322331056E0,5.924628735E0,-4.907081127E0,7.141379356E0
8.332270639E0,4.947160721E0,-4.816154003E0,7.275377274E0
8.342214493E0,4.074976921E0,-4.197608948E0,7.337590694E0
8.352154128E0,3.696312666E0,-3.699902058E0,7.490731239E0
8.362093712E0,3.845266104E0,-3.326023579E0,7.529614449E0
8.372021212E0,4.587639332E0,-3.004786968E0,7.485945702E0
8.381960847E0,5.608178139E0,-2.669791937E0,7.385447025E0
8.391900431E0,6.355337143E0,-2.544766903E0,7.385447025E0
8.401830222E0,6.705287457E0,-2.799004316E0,7.356733322E0
8.411769858E0,6.388836384E0,-3.287738323E0,7.558328629E0
8.421709493E0,5.560321808E0,-3.795614958E0,7.802396297E0
8.431661108E0,4.880161762E0,-4.010969162E0,8.017750740E0
8.441600743E0,4.779065132E0,-4.001397610E0,8.209774017E0
8.451540378E0,5.143372059E0,-3.795614958E0,8.410771370E0
8.461472514E0,5.742176056E0,-3.402593851E0,8.506484032E0
8.471412149E0,6.269195557E0,-2.861217737E0,8.334200859E0
8.481351733E0,6.494719028E0,-2.401197433E0,7.869395256E0
8.491310743E0,6.326622963E0,-2.329412937E0,7.802396297E0
8.501250378E0,5.809175014E0,-2.559123755E0,8.022536278E0
8.511190014E0,5.219942570E0,-2.822932482E0,7.931608677E0
8.521119806E0,5.119443893E0,-3.192025423E0,7.864609718E0
8.531059441E0,5.488536835E0,-3.781257868E0,7.955537319E0
8.540999076E0,6.077769279E0,-4.183252335E0,8.032107353E0
8.550903243E0,6.734001160E0,-3.943969965E0,8.047062874E0
8.560842878E0,7.179664135E0,-3.359523058E0,7.807182312E0
8.570782462E0,7.074379921E0,-3.052643538E0,7.721040249E0
8.580746941E0,6.456433773E0,-3.119642496E0,8.051848412E0
8.590686576E0,5.708676815E0,-3.369094372E0,8.228917122E0
8.600626160E0,5.267798901E0,-3.805186272E0,8.391629219E0
8.610564128E0,5.483751297E0,-4.269991875E0,8.458627701E0
8.620503764E0,6.154339790E0,-4.585844517E0,8.185846329E0
8.630443399E0,6.896713257E0,-4.490131855E0,7.864609718E0
8.640385483E0,7.289734364E0,-3.977469444E0,7.658827305E0
8.650324806E0,7.069594383E0,-3.316452265E0,7.510472298E0
8.660264181E0,6.417550564E0,-2.870789051E0,7.505686283E0
8.670174181E0,5.756533146E0,-2.880360365E0,7.644470215E0
8.680113503E0,5.330012321E0,-3.114856958E0,8.012965202E0
8.690052826E0,5.392824173E0,-3.292523861E0,8.358129501E0
8.699989701E0,5.880959988E0,-3.445664644E0,8.516056061E0
8.709929024E0,6.542575359E0,-3.440878868E0,8.262416840E0
8.719868347E0,6.853642464E0,-3.143570662E0,7.902894974E0
8.729822878E0,6.499504566E0,-2.779861689E0,7.907680511E0
8.739762253E0,5.746961594E0,-2.606980324E0,8.051848412E0
8.749701576E0,5.129015446E0,-2.535195589E0,7.989036560E0
8.759643243E0,5.100301266E0,-2.587837696E0,7.826324463E0
8.769582566E0,5.584249973E0,-2.789433002E0,7.630113125E0
8.779521941E0,6.211767673E0,-3.043072224E0,7.438089371E0
8.789414701E0,6.585646152E0,-3.081357241E0,7.261020184E0
8.799354024E0,6.552146435E0,-2.899502754E0,7.227520943E0
8.809293347E0,6.077769279E0,-2.665006161E0,7.404589653E0
8.819243139E0,5.488536835E0,-2.597409010E0,7.524828911E0
8.829182462E0,5.105087280E0,-2.703291416E0,7.601399422E0
8.839121785E0,4.928018093E0,-2.813361168E0,7.721040249E0
8.849074128E0,5.191228867E0,-2.856431961E0,7.668398380E0
8.859013503E0,5.727818966E0,-2.803789854E0,7.591827869E0
8.868952826E0,6.120840549E0,-2.655434847E0,7.466803074E0
8.878862931E0,6.206982136E0,-2.492124796E0,7.385447025E0
8.888802253E0,6.120840549E0,-2.563909531E0,7.371089935E0
8.898741628E0,5.934200287E0,-2.909074068E0,7.237092018E0
8.908692878E0,5.746961594E0,-3.306880951E0,7.399804115E0
8.918632201E0,5.617749214E0,-3.455235958E0,7.582256794E0
8.928571576E0,5.608178139E0,-3.393022537E0,7.520043373E0
8.938496472E0,5.522036552E0,-2.976073265E0,7.572685242E0
8.948435795E0,5.364109993E0,-2.372483730E0,7.639684677E0
8.958375170E0,5.296513081E0,-1.869392633E0,7.610970497E0
8.968299545E0,5.239085197E0,-1.673181176E0,7.524828911E0
8.978238868E0,5.411966801E0,-1.989033818E0,7.418946743E0
8.988178191E0,5.876173973E0,-2.727219582E0,7.332805157E0
8.998147462E0,6.374479294E0,-3.483949661E0,7.371089935E0
9.008086785E0,6.834499836E0,-4.073182583E0,7.490731239E0
9.018026160E0,7.016952515E0,-4.236492634E0,7.615756035E0
9.027930535E0,6.729215622E0,-3.752544165E0,7.826324463E0
9.037869858E0,6.202196121E0,-2.923431158E0,8.036892891E0
9.047809181E0,5.929414749E0,-2.324627161E0,8.166703224E0
9.057772358E0,6.163911343E0,-2.133201361E0,8.568697929E0
9.067711681E0,6.734001160E0,-2.286342144E0,8.568697929E0
9.077651003E0,7.390232563E0,-2.688934565E0,8.391629219E0
9.087598139E0,7.807182312E0,-3.138785124E0,8.353343964E0
9.097537514E0,7.663612843E0,-3.306880951E0,8.353343964E0
9.107476837E0,6.786643028E0,-3.105285645E0,8.276773453E0
9.117376837E0,5.785246849E0,-2.746362209E0,8.123632431E0
9.127316160E0,5.033302307E0,-2.372483730E0,8.214560509E0
9.137255535E0,4.812564373E0,-2.204986095E0,8.501698494E0
9.147223399E0,5.105087280E0,-2.257628202E0,8.755936623E0
9.157162462E0,5.684748173E0,-2.362912416E0,8.904291153E0
9.167101524E0,6.360122681E0,-2.516052961E0,8.866005898E0
9.177010951E0,6.724429607E0,-2.698505640E0,8.343772888E0
9.186950014E0,6.633502483E0,-2.928216696E0,7.792825222E0
9.196889076E0,6.340980053E0,-3.081357241E0,7.630113125E0
9.206816993E0,5.948556900E0,-3.076571703E0,7.687541008E0
9.216756003E0,5.593821049E0,-3.114856958E0,7.754539967E0
9.226695066E0,5.440680504E0,-3.100499868E0,7.725826263E0
9.236645899E0,5.397609711E0,-2.966501951E0,7.730611801E0
9.246584962E0,5.450251579E0,-2.851646423E0,7.917252064E0
9.256524076E0,5.622535229E0,-2.875574589E0,8.080561638E0
9.266447514E0,5.900700569E0,-2.985644341E0,7.941180229E0
9.276386628E0,6.173482418E0,-3.168097258E0,7.682755470E0
9.286325691E0,6.355337143E0,-3.436093330E0,7.385447025E0
9.296263868E0,6.230910301E0,-3.570091486E0,7.146164894E0
9.306202931E0,5.871388435E0,-3.622733593E0,7.189235687E0
9.316141993E0,5.296513081E0,-3.651447296E0,7.337590694E0
9.326104441E0,4.999803066E0,-3.306880951E0,7.442874908E0
9.336043503E0,5.062016487E0,-2.727219582E0,7.869395256E0
9.345982566E0,5.253442287E0,-2.353341103E0,8.147561073E0
9.355883712E0,5.440680504E0,-2.358126640E0,7.864609718E0
9.365822774E0,5.708676815E0,-2.708076954E0,7.716254711E0
9.375761785E0,5.948556900E0,-3.105285645E0,7.654041290E0
9.385702931E0,6.034698486E0,-3.230310678E0,7.481160164E0
9.395641993E0,6.178267956E0,-3.273381472E0,7.553543091E0
9.405581056E0,6.197410583E0,-3.220739365E0,7.764111042E0
9.415524181E0,6.049055576E0,-2.966501951E0,7.926823139E0
9.425463295E0,5.861817360E0,-2.703291416E0,7.979465485E0
9.435402358E0,5.766104221E0,-2.597409010E0,8.137989998E0
9.445357618E0,5.617749214E0,-2.751147747E0,8.310273170E0
9.455296681E0,5.593821049E0,-2.755933523E0,8.200202942E0
9.465235743E0,5.804389477E0,-2.822932482E0,7.965108395E0
9.475167670E0,5.996413708E0,-3.019144058E0,7.797610760E0
9.485106733E0,5.986842155E0,-3.076571703E0,7.926823139E0
9.495045795E0,5.938985825E0,-2.976073265E0,8.252845764E0
9.504972670E0,5.699105263E0,-2.928216696E0,7.989036560E0
9.514911733E0,5.157729149E0,-2.822932482E0,7.869395256E0
9.524850795E0,4.740779877E0,-2.918645382E0,7.965108395E0
9.534807045E0,4.702494621E0,-3.172882795E0,7.998608112E0
9.544746108E0,5.042873859E0,-3.388236761E0,7.788039684E0
9.554685170E0,5.694319725E0,-3.474378586E0,7.855038643E0
9.564632358E0,6.437291145E0,-3.349951744E0,8.032107353E0
9.574571420E0,6.748358250E0,-3.086143017E0,7.888537884E0
9.584510483E0,6.805785656E0,-2.870789051E0,7.721040249E0
9.594396264E0,6.504290104E0,-2.789433002E0,7.663612843E0
9.604335326E0,5.991627693E0,-2.832503796E0,7.773682594E0
9.614274389E0,5.431109428E0,-2.861217737E0,7.955537319E0
9.624221264E0,5.090730190E0,-3.067000389E0,8.051848412E0
9.634160378E0,5.200799942E0,-3.522234917E0,8.012965202E0
9.644099441E0,5.416752338E0,-3.857828379E0,7.950751305E0
9.654052306E0,5.550750256E0,-3.891327858E0,7.850253105E0
9.663991108E0,5.617749214E0,-3.622733593E0,7.730611801E0
9.673929962E0,5.421537876E0,-3.254238844E0,7.529614449E0
9.683875483E0,5.033302307E0,-2.846860647E0,7.414160728E0
9.693814285E0,4.783850670E0,-2.755933523E0,7.615756035E0
9.703753087E0,4.764708042E0,-2.942573547E0,7.826324463E0
9.713660535E0,5.076373100E0,-3.196810961E0,7.802396297E0
9.723599337E0,5.411966801E0,-3.522234917E0,7.596613884E0
9.733538139E0,5.498108387E0,-3.771686792E0,7.471588612E0
9.743488295E0,5.397609711E0,-3.747758389E0,7.476374149E0
9.753427149E0,5.243870735E0,-3.536591768E0,7.375875950E0
9.763365951E0,5.224728107E0,-3.268595695E0,7.356733322E0
9.773282931E0,5.042873859E0,-3.177668571E0,7.385447025E0
9.783221681E0,4.769493580E0,-3.163311481E0,7.409375191E0
9.793160535E0,4.601995945E0,-3.153740168E0,7.433303356E0
9.803136316E0,4.549354076E0,-3.254238844E0,7.500302792E0
9.813075118E0,4.731208801E0,-3.359523058E0,7.563114166E0
9.823013920E0,4.904089928E0,-3.455235958E0,7.495516777E0
9.832911941E0,5.062016487E0,-3.574877024E0,7.232306480E0
9.842850743E0,5.248656273E0,-3.512663603E0,7.069594383E0
9.852789545E0,5.392824173E0,-3.373879910E0,7.170093060E0
9.862754441E0,5.483751297E0,-3.306880951E0,7.246663570E0
9.872693243E0,5.431109428E0,-3.517449379E0,7.203592777E0
9.882632097E0,5.191228867E0,-3.704687595E0,7.356733322E0
9.892547253E0,4.889732838E0,-3.733401537E0,7.495516777E0
9.902486056E0,4.837090969E0,-3.891327858E0,7.366304398E0
9.912424910E0,5.085944653E0,-4.125824451E0,7.280162811E0
9.922361681E0,5.373681545E0,-4.130609989E0,7.332805157E0
9.932300483E0,5.603392601E0,-3.920041800E0,7.337590694E0
9.942239285E0,5.699105263E0,-3.675375462E0,7.198806763E0
9.952199858E0,5.354538918E0,-3.594019651E0,7.093522549E0
9.962138660E0,4.865804672E0,-3.695116282E0,7.098308563E0
9.972077514E0,4.645066738E0,-3.881756544E0,7.232306480E0
9.981990170E0,4.702494621E0,-4.130609989E0,7.308876991E0
9.991928972E0,5.359324455E0,-4.504488468E0,7.375875950E0
1.000186777E1,6.168696880E0,-4.787439823E0,7.385447025E0
1.001179897E1,6.470790863E0,-4.782654285E0,7.241877556E0
1.002173772E1,6.178267956E0,-4.504488468E0,7.237092018E0
1.003167658E1,5.450251579E0,-4.082753658E0,7.237092018E0
1.004163090E1,4.616353035E0,-3.829114437E0,7.280162811E0
1.005156975E1,4.247260094E0,-3.843471289E0,7.462017536E0
1.006150856E1,4.338785648E0,-3.939184189E0,7.409375191E0
1.007145897E1,4.750350952E0,-4.025325775E0,7.265805721E0
1.008139777E1,5.114658356E0,-3.934398651E0,7.136593342E0
1.009133663E1,5.243870735E0,-3.675375462E0,7.036095142E0
1.010124970E1,5.243870735E0,-3.421736479E0,6.848856449E0
1.011118856E1,5.100301266E0,-3.220739365E0,6.690930367E0
1.012112736E1,4.932804108E0,-3.100499868E0,6.480361938E0
1.013105043E1,4.688137531E0,-3.230310678E0,6.451648235E0
1.014098918E1,4.329214573E0,-3.493520975E0,6.456433773E0
1.015092804E1,3.960121393E0,-3.781257868E0,6.307480335E0
1.016086949E1,3.754338741E0,-4.058825493E0,6.360122681E0
1.017080809E1,3.701098442E0,-4.207180500E0,6.407979012E0
1.018074668E1,3.869194269E0,-4.164109707E0,6.087340832E0
1.019069319E1,4.074976921E0,-4.073182583E0,5.809175014E0
1.020063173E1,4.194618225E0,-3.881756544E0,5.852245808E0
1.021057033E1,4.256831646E0,-3.522234917E0,5.915057659E0
1.022050668E1,4.367499352E0,-3.239881754E0,6.125626087E0
1.023044522E1,4.444069862E0,-3.225524902E0,6.340980053E0
1.024038382E1,4.621138573E0,-3.680759430E0,6.388836384E0
1.025034022E1,4.880161762E0,-4.447061062E0,6.340980053E0
1.026027882E1,4.995017052E0,-5.021936417E0,6.388836384E0
1.027021736E1,4.764708042E0,-5.055436134E0,6.724429607E0
1.028015413E1,4.405784607E0,-4.403990269E0,7.040880680E0
1.029009267E1,4.310071945E0,-3.522234917E0,7.308876991E0
1.030003126E1,4.606781960E0,-2.842075109E0,7.485945702E0
1.030994152E1,5.162514687E0,-2.631506681E0,7.558328629E0
1.031988012E1,5.828317642E0,-3.000001431E0,7.553543091E0
1.032981871E1,6.293123722E0,-3.963112593E0,7.462017536E0
1.033976892E1,6.446862221E0,-5.074578762E0,7.409375191E0
1.034970746E1,6.245266914E0,-5.553741455E0,7.543971539E0
1.035964606E1,5.809175014E0,-5.045864582E0,7.778468132E0
1.036960626E1,5.263013363E0,-4.073182583E0,7.993822098E0
1.037954486E1,4.918447018E0,-3.297309637E0,8.147561073E0
1.038948340E1,4.875376225E0,-2.971287489E0,7.874181271E0
1.039940897E1,5.057230473E0,-3.168097258E0,7.658827305E0
1.040934751E1,5.277370453E0,-3.776472330E0,7.601399422E0
1.041928611E1,5.364109993E0,-4.518845558E0,7.447660446E0
1.042919913E1,5.383252621E0,-5.251647472E0,7.462017536E0
1.043913772E1,5.263013363E0,-5.639883041E0,7.610970497E0
1.044907632E1,4.861019135E0,-5.371886730E0,7.687541008E0
1.045903304E1,4.467998028E0,-4.633700848E0,7.735397339E0
1.046897158E1,4.539782524E0,-3.872185230E0,7.783253670E0
1.047891017E1,4.884947300E0,-3.354737282E0,7.744968891E0
1.048882559E1,5.359324455E0,-3.090928555E0,7.577471256E0
1.049876418E1,5.727818966E0,-3.215953588E0,7.524828911E0
1.050870277E1,5.761318684E0,-3.622733593E0,7.438089371E0
1.051864835E1,5.560321808E0,-4.183252335E0,7.520043373E0
1.052858689E1,5.349154949E0,-4.734199524E0,7.706683636E0
1.053852548E1,5.181657314E0,-4.916652203E0,7.917252064E0
1.054847981E1,5.215157032E0,-4.748556614E0,7.989036560E0
1.055841840E1,5.320441246E0,-4.447061062E0,7.989036560E0
1.056835694E1,5.397609711E0,-4.164109707E0,7.850253105E0
1.057827017E1,5.459823132E0,-3.881756544E0,7.610970497E0
1.058820876E1,5.383252621E0,-3.786043644E0,7.572685242E0
1.059814736E1,5.310869694E0,-3.900899172E0,7.601399422E0
1.060808449E1,5.239085197E0,-4.173680782E0,7.543971539E0
1.061802309E1,5.162514687E0,-4.494917393E0,7.524828911E0
1.062796168E1,5.129015446E0,-4.768297195E0,7.529614449E0
1.063789902E1,5.090730190E0,-4.911866665E0,7.356733322E0
1.064783762E1,5.038087845E0,-4.816154003E0,7.203592777E0
1.065777621E1,4.918447018E0,-4.437489510E0,7.241877556E0
1.066772100E1,4.769493580E0,-4.001397610E0,7.131807804E0
1.067765955E1,4.702494621E0,-3.757329702E0,7.050451756E0
1.068759809E1,4.664209366E0,-3.570091486E0,7.141379356E0
1.069754460E1,4.597210407E0,-3.503092289E0,7.246663570E0
1.070748309E1,4.539782524E0,-3.598805189E0,7.299305439E0
1.071742158E1,4.544568539E0,-3.719044685E0,7.184450150E0
1.072733939E1,4.534996986E0,-3.829114437E0,6.993024349E0
1.073727793E1,4.597210407E0,-3.924827337E0,6.748358250E0
1.074721642E1,4.654638290E0,-4.010969162E0,6.528218269E0
1.075718746E1,4.692923546E0,-4.010969162E0,6.466004848E0
1.076712595E1,4.688137531E0,-3.967898130E0,6.417550564E0
1.077706449E1,4.611567497E0,-3.900899172E0,6.384050846E0
1.078696678E1,4.444069862E0,-3.781257868E0,6.427121639E0
1.079690533E1,4.175475597E0,-3.608376503E0,6.446862221E0
1.080684382E1,3.845266104E0,-3.531806231E0,6.461219311E0
1.081679486E1,3.662813187E0,-3.641875982E0,6.566503525E0
1.082673335E1,3.759124279E0,-3.824328899E0,6.647859573E0
1.083667189E1,4.194618225E0,-4.068396568E0,6.542575359E0
1.084663408E1,4.802993298E0,-4.241278172E0,6.537789822E0
1.085657262E1,5.200799942E0,-4.063611031E0,6.690930367E0
1.086651111E1,5.033302307E0,-3.719044685E0,6.547360897E0
1.087644168E1,4.405784607E0,-3.426522017E0,6.466004848E0
1.088638017E1,3.725026608E0,-3.273381472E0,6.662216663E0
1.089631871E1,3.303889751E0,-3.330809116E0,6.920641422E0
1.090625361E1,3.202793121E0,-3.531806231E0,7.213163853E0
1.091619210E1,3.638885021E0,-3.771686792E0,7.380661488E0
1.092613059E1,4.664209366E0,-3.982254982E0,7.251449108E0
1.093606840E1,5.670391560E0,-3.987040758E0,6.915855408E0
1.094600689E1,6.087340832E0,-3.680759430E0,6.877570629E0
1.095594538E1,5.794818401E0,-3.340380430E0,6.796214581E0
1.096586277E1,5.114658356E0,-2.980858803E0,6.734001160E0
1.097580132E1,4.525425911E0,-2.913859844E0,6.891927242E0
1.098573986E1,4.237689018E0,-3.230310678E0,7.098308563E0
1.099569704E1,4.132404804E0,-3.685544968E0,7.141379356E0
1.100563554E1,4.161118507E0,-4.211966038E0,6.973881721E0
1.101557408E1,4.444069862E0,-4.590630054E0,6.968497753E0
1.102547746E1,4.793421745E0,-4.571487427E0,6.997809887E0
1.103541600E1,4.951946259E0,-4.250849247E0,6.628716946E0
1.104535449E1,4.875376225E0,-3.857828379E0,6.590431690E0
1.105529767E1,4.424927235E0,-3.354737282E0,7.060023308E0
1.106523621E1,3.859622955E0,-3.014358282E0,7.462017536E0
1.107517470E1,3.778266907E0,-3.100499868E0,7.730611801E0
1.108513454E1,4.314857483E0,-3.474378586E0,7.840681553E0
1.109507304E1,5.157729149E0,-3.939184189E0,7.744968891E0
1.110501158E1,5.910272121E0,-4.274777889E0,7.668398380E0
1.111495481E1,6.369693756E0,-4.284348965E0,7.529614449E0
1.112489330E1,6.475576401E0,-4.130609989E0,7.634898663E0
1.113483184E1,6.202196121E0,-3.853042603E0,7.802396297E0
1.114474496E1,5.809175014E0,-3.555734396E0,7.831110477E0
1.115468350E1,5.675177097E0,-3.498306751E0,8.233702660E0
1.116462205E1,5.679962635E0,-3.579662561E0,8.453842163E0
1.117455090E1,5.761318684E0,-3.627519131E0,8.415556908E0
1.118448923E1,5.799603939E0,-3.665804386E0,8.128418922E0
1.119442762E1,5.742176056E0,-3.747758389E0,7.931608677E0
1.120439413E1,5.531607628E0,-3.675375462E0,7.778468132E0
1.121433251E1,5.186442852E0,-3.598805189E0,7.773682594E0
1.122427090E1,4.990231514E0,-3.733401537E0,7.969893932E0
1.123421168E1,4.975874901E0,-3.867399693E0,8.319844246E0
1.124415007E1,5.210371494E0,-3.924827337E0,8.492127419E0
1.125408840E1,5.732604980E0,-4.111467361E0,8.434700012E0
1.126402574E1,6.307480335E0,-4.289134502E0,8.300702095E0
1.127396413E1,6.705287457E0,-4.269991875E0,7.926823139E0
1.128390246E1,6.700501442E0,-4.168895245E0,7.701898098E0
1.129382262E1,6.087340832E0,-4.049253941E0,7.850253105E0
1.130376100E1,5.095515728E0,-3.704687595E0,8.017750740E0
1.131369934E1,4.448855400E0,-3.239881754E0,8.137989998E0
1.132365043E1,4.357928276E0,-2.856431961E0,8.123632431E0
1.133358882E1,4.692923546E0,-2.770290375E0,8.036892891E0
1.134352720E1,5.291727066E0,-3.081357241E0,7.974679470E0
1.135346647E1,5.958128452E0,-3.378665686E0,7.888537884E0
1.136340486E1,6.211767673E0,-3.546163082E0,7.917252064E0
1.137334319E1,6.005984783E0,-3.790829182E0,8.090133667E0
1.138325434E1,5.498108387E0,-3.838685751E0,8.123632431E0
1.139319272E1,4.932804108E0,-3.632304668E0,7.936394691E0
1.140313111E1,4.573282242E0,-3.445664644E0,7.840681553E0
1.141309512E1,4.640281200E0,-3.278167009E0,7.869395256E0
1.142303350E1,4.980660439E0,-3.148954630E0,7.878966808E0
1.143297184E1,5.646463394E0,-3.052643538E0,7.476374149E0
1.144288335E1,6.254838467E0,-3.057429075E0,7.179664135E0
1.145282173E1,6.446862221E0,-3.235096216E0,7.328019142E0
1.146276012E1,5.885745525E0,-3.436093330E0,7.490731239E0
1.147271111E1,4.884947300E0,-3.613162279E0,7.485945702E0
1.148264949E1,4.396213531E0,-3.953541279E0,7.524828911E0
1.149258783E1,4.601995945E0,-4.265206337E0,7.682755470E0
1.150252986E1,5.219942570E0,-4.346562386E0,7.428517818E0
1.151246819E1,5.991627693E0,-4.246063709E0,7.170093060E0
1.152240658E1,6.345765591E0,-4.010969162E0,7.184450150E0
1.153231944E1,6.230910301E0,-3.675375462E0,7.356733322E0
1.154225788E1,5.866602898E0,-3.364308596E0,7.395018578E0
1.155219621E1,5.579464436E0,-3.206382275E0,7.313662529E0
1.156213350E1,5.541179180E0,-3.220739365E0,7.673183918E0
1.157207189E1,5.488536835E0,-3.345165968E0,7.883752346E0
1.158201027E1,5.498108387E0,-3.431307554E0,7.974679470E0
1.159197600E1,5.445466042E0,-3.503092289E0,8.181060791E0
1.160191439E1,5.167300701E0,-3.522234917E0,8.166703224E0
1.161185272E1,5.023731232E0,-3.321237803E0,8.200202942E0
1.162177533E1,5.052444935E0,-3.028715372E0,8.080561638E0
1.163171366E1,5.196014404E0,-2.894717216E0,7.926823139E0
1.164165204E1,5.320441246E0,-2.985644341E0,8.066205025E0
1.165161262E1,5.531607628E0,-3.182454109E0,8.176275253E0
1.166155100E1,5.775675774E0,-3.235096216E0,8.133204460E0
1.167148934E1,5.924628735E0,-3.225524902E0,8.075776100E0
1.168139095E1,5.924628735E0,-3.119642496E0,7.926823139E0
1.169132928E1,5.751747608E0,-3.052643538E0,7.898109436E0
1.170126762E1,5.402395248E0,-3.057429075E0,7.969893932E0
1.171123783E1,5.181657314E0,-3.100499868E0,8.070990562E0
1.172117611E1,5.258227825E0,-3.110071182E0,8.243273735E0
1.173111444E1,5.684748173E0,-3.148954630E0,8.228917122E0
1.174104569E1,5.833103180E0,-3.254238844E0,8.271987915E0
1.175098397E1,5.751747608E0,-3.416950703E0,7.965108395E0
1.176092231E1,5.742176056E0,-3.738187075E0,7.606184959E0
1.177083845E1,5.598606586E0,-3.924827337E0,7.668398380E0
1.178077678E1,5.450251579E0,-3.781257868E0,7.811967850E0
1.179071512E1,5.320441246E0,-3.483949661E0,7.826324463E0
1.180065626E1,5.306084156E0,-3.206382275E0,7.845467091E0
1.181059454E1,5.526822090E0,-2.985644341E0,8.099704742E0
1.182053288E1,5.775675774E0,-2.904288530E0,8.530412674E0
1.183046314E1,5.885745525E0,-3.071786165E0,8.703293800E0
1.184040142E1,6.077769279E0,-3.239881754E0,8.641080856E0
1.185033975E1,5.958128452E0,-3.335594654E0,8.655437469E0
1.186029246E1,5.636891842E0,-3.359523058E0,8.477770805E0
1.187023074E1,5.545964718E0,-3.259024382E0,8.319844246E0
1.188016908E1,5.742176056E0,-3.168097258E0,8.099704742E0
1.189012152E1,6.082555294E0,-3.201596737E0,8.200202942E0
1.190005986E1,6.235695839E0,-3.067000389E0,8.636295319E0
1.190999814E1,6.556932449E0,-3.019144058E0,8.799007416E0
1.191990111E1,6.604788780E0,-3.148954630E0,8.641080856E0
1.192983944E1,6.250052929E0,-3.249453068E0,8.621937752E0
1.193977777E1,5.943771362E0,-3.393022537E0,8.684151649E0
1.194972314E1,5.699105263E0,-3.249453068E0,8.799007416E0
1.195966147E1,5.541179180E0,-2.947359324E0,8.650651932E0
1.196959981E1,5.498108387E0,-2.741576433E0,8.535198212E0
1.197954007E1,5.574678421E0,-2.636292458E0,8.386843681E0
1.198947835E1,5.512465000E0,-2.669791937E0,8.056633949E0
1.199941668E1,5.493322372E0,-2.937788010E0,7.744968891E0
1.200937918E1,5.574678421E0,-3.383451223E0,7.788039684E0
1.201931751E1,5.603392601E0,-3.738187075E0,8.104490280E0
1.202925580E1,5.459823132E0,-3.786043644E0,8.338987350E0
1.203919475E1,5.191228867E0,-3.565305710E0,8.305487633E0
1.204913304E1,5.057230473E0,-3.292523861E0,8.252845764E0
1.205907137E1,5.004588604E0,-3.043072224E0,8.286344528E0
1.206901246E1,5.081159115E0,-2.894717216E0,8.300702095E0
1.207895074E1,5.330012321E0,-2.995215654E0,8.267202377E0
1.208888908E1,5.699105263E0,-3.297309637E0,8.243273735E0
1.209881350E1,5.962913990E0,-3.603590965E0,7.965108395E0
1.210875178E1,5.919843197E0,-3.747758389E0,7.740182877E0
1.211869012E1,5.622535229E0,-3.661018610E0,7.859824181E0
1.212864475E1,5.388038158E0,-3.297309637E0,7.869395256E0
1.213858304E1,5.364109993E0,-2.990430117E0,7.912466049E0
1.214852137E1,5.315655708E0,-3.000001431E0,8.027321815E0
1.215844762E1,5.272584915E0,-3.206382275E0,8.128418922E0
1.216838590E1,5.282155991E0,-3.349951744E0,8.114061356E0
1.217832423E1,5.286941528E0,-3.431307554E0,8.142775536E0
1.218826309E1,5.349154949E0,-3.450450182E0,8.137989998E0
1.219820147E1,5.301298618E0,-3.326023579E0,8.012965202E0
1.220813986E1,5.129015446E0,-3.225524902E0,7.864609718E0
1.221805554E1,4.928018093E0,-3.263810158E0,7.993822098E0
1.222799392E1,4.678566456E0,-3.196810961E0,8.142775536E0
1.223793231E1,4.645066738E0,-3.095714331E0,8.228917122E0
1.224788975E1,4.870590687E0,-3.047857761E0,8.200202942E0
1.225782814E1,5.296513081E0,-3.148954630E0,8.228917122E0
1.226776652E1,5.574678421E0,-3.278167009E0,8.085348129E0
1.227767293E1,5.718247890E0,-3.402593851E0,7.989036560E0
1.228761132E1,5.665606022E0,-3.498306751E0,7.989036560E0
1.229754975E1,5.545964718E0,-3.517449379E0,8.085348129E0
1.230752319E1,5.397609711E0,-3.560520172E0,8.171489716E0
1.231746158E1,5.301298618E0,-3.738187075E0,8.176275253E0
1.232739996E1,5.248656273E0,-3.838685751E0,8.238488197E0
1.233731731E1,5.133800983E0,-3.853042603E0,8.161917686E0
1.234725564E1,4.980660439E0,-3.719044685E0,7.960322857E0
1.235719402E1,4.928018093E0,-3.426522017E0,7.754539967E0
1.236714798E1,5.004588604E0,-3.119642496E0,7.716254711E0
1.237708637E1,5.191228867E0,-2.985644341E0,7.701898098E0
1.238702475E1,5.378467083E0,-3.028715372E0,7.591827869E0
1.239696366E1,5.493322372E0,-3.302095175E0,7.481160164E0
1.240690204E1,5.488536835E0,-3.699902058E0,7.567899704E0
1.241684043E1,5.253442287E0,-3.848257065E0,7.773682594E0
1.242676871E1,4.942375183E0,-3.738187075E0,7.950751305E0
1.243670710E1,4.573282242E0,-3.622733593E0,8.080561638E0
1.244664543E1,4.453640938E0,-3.416950703E0,8.032107353E0
1.245658585E1,4.750350952E0,-3.278167009E0,7.960322857E0
1.246652418E1,5.186442852E0,-3.373879910E0,7.811967850E0
1.247646257E1,5.684748173E0,-3.675375462E0,7.524828911E0
1.248639736E1,5.967699528E0,-3.819543123E0,7.332805157E0
1.249633574E1,5.775675774E0,-3.584448338E0,7.490731239E0
1.250627413E1,5.219942570E0,-3.124428272E0,7.768897057E0
1.251622074E1,4.654638290E0,-2.818146944E0,7.831110477E0
1.252615913E1,4.424927235E0,-2.799004316E0,7.768897057E0
1.253609751E1,4.549354076E0,-3.067000389E0,7.587042332E0
1.254603069E1,4.980660439E0,-3.641875982E0,7.587042332E0
1.255596908E1,5.392824173E0,-4.207180500E0,7.577471256E0
1.256590746E1,5.641677380E0,-4.537988186E0,7.347161770E0
1.257584366E1,5.584249973E0,-4.581058979E0,7.012166977E0
1.258578199E1,5.205585480E0,-4.246063709E0,6.911069870E0
1.259572038E1,4.659423828E0,-3.819543123E0,7.050451756E0
1.260566330E1,4.334000111E0,-3.555734396E0,7.246663570E0
1.261560168E1,4.314857483E0,-3.550948858E0,7.543971539E0
1.262554007E1,4.616353035E0,-3.805186272E0,7.654041290E0
1.263544064E1,5.023731232E0,-4.202394962E0,7.529614449E0
1.264537902E1,5.219942570E0,-4.475774765E0,7.280162811E0
1.265531746E1,5.263013363E0,-4.360919476E0,7.227520943E0
1.266525491E1,5.258227825E0,-4.039682865E0,7.284948349E0
1.267519330E1,5.291727066E0,-3.704687595E0,7.294519901E0
1.268513168E1,5.310869694E0,-3.479164124E0,7.246663570E0
1.269507663E1,5.219942570E0,-3.555734396E0,7.337590694E0
1.270501486E1,4.918447018E0,-3.824328899E0,7.356733322E0
1.271495309E1,4.491926193E0,-4.087539196E0,7.371089935E0
1.272491845E1,4.275974274E0,-4.313062668E0,7.481160164E0
1.273485668E1,4.348356724E0,-4.375276089E0,7.539186001E0
1.274479486E1,4.692923546E0,-4.222135544E0,7.447660446E0
1.275470069E1,5.100301266E0,-4.006183147E0,7.294519901E0
1.276463892E1,5.210371494E0,-3.752544165E0,7.122236729E0
1.277457715E1,4.971088886E0,-3.416950703E0,6.824928284E0
1.278454772E1,4.477569580E0,-3.263810158E0,6.757929325E0
1.279448590E1,3.897907972E0,-3.440878868E0,6.863213539E0
1.280442413E1,3.543172121E0,-3.766901016E0,6.954140663E0
1.281436767E1,3.504886866E0,-4.049253941E0,6.829713821E0
1.282430585E1,3.614956856E0,-4.298706055E0,6.628716946E0
1.283424408E1,3.754338741E0,-4.470989227E0,6.667002201E0
1.284417809E1,3.759124279E0,-4.231706619E0,6.681358814E0
1.285411626E1,3.787838221E0,-3.656233072E0,6.528218269E0
1.286405449E1,3.897907972E0,-3.090928555E0,6.422336102E0
1.287398408E1,4.007977962E0,-2.775076151E0,6.345765591E0
1.288392225E1,4.189832687E0,-2.717648268E0,6.547360897E0
1.289386048E1,4.415356159E0,-2.923431158E0,6.767500877E0
1.290377939E1,4.625924587E0,-3.479164124E0,6.839285374E0
1.291371757E1,4.822733879E0,-4.058825493E0,6.939784050E0
1.292365580E1,4.865804672E0,-4.308277130E0,7.007380962E0
1.293362481E1,4.870590687E0,-4.322634220E0,6.791429043E0
1.294356304E1,4.961517811E0,-4.284348965E0,6.499504566E0
1.295350121E1,5.090730190E0,-4.260420799E0,6.537789822E0
1.296339965E1,5.095515728E0,-4.217350006E0,6.757929325E0
1.297333788E1,5.071587563E0,-4.097110748E0,6.978667259E0
1.298327611E1,5.033302307E0,-4.001397610E0,7.165307522E0
1.299322522E1,5.047659397E0,-4.044468403E0,7.208378315E0
1.300316340E1,5.105087280E0,-4.140181541E0,7.170093060E0
1.301310163E1,5.119443893E0,-4.408775806E0,6.973881721E0
1.302303423E1,5.105087280E0,-4.724628448E0,6.930212498E0
1.303297241E1,4.990231514E0,-4.820939541E0,6.973881721E0
1.304291064E1,4.769493580E0,-4.691128731E0,7.079165936E0
1.305287215E1,4.664209366E0,-4.370490551E0,7.280162811E0
1.306281038E1,4.702494621E0,-4.063611031E0,7.462017536E0
1.307274856E1,4.774279594E0,-3.905684710E0,7.481160164E0
1.308266470E1,4.913661480E0,-3.896113396E0,7.304090977E0
1.309260293E1,5.152943611E0,-4.068396568E0,7.261020184E0
1.310254116E1,5.325226784E0,-4.231706619E0,7.318448067E0
1.311247012E1,5.253442287E0,-4.183252335E0,7.237092018E0
1.312240835E1,5.090730190E0,-4.030111313E0,7.127022266E0
1.313234658E1,4.841876507E0,-3.967898130E0,7.155735970E0
1.314232038E1,4.625924587E0,-4.168895245E0,7.150950432E0
1.315225856E1,4.578067780E0,-4.566701889E0,7.165307522E0
1.316219678E1,4.779065132E0,-4.907081127E0,7.251449108E0
1.317213038E1,5.090730190E0,-4.969294548E0,7.246663570E0
1.318206861E1,5.344369411E0,-4.667200565E0,7.371089935E0
1.319200678E1,5.440680504E0,-4.068396568E0,7.428517818E0
1.320194538E1,5.359324455E0,-3.483949661E0,7.390232563E0
1.321188366E1,5.234299660E0,-3.129213810E0,7.548757076E0
1.322182194E1,5.181657314E0,-3.119642496E0,7.778468132E0
1.323173923E1,5.095515728E0,-3.436093330E0,7.888537884E0
1.324167751E1,4.975874901E0,-3.967898130E0,7.802396297E0
1.325161580E1,4.851448059E0,-4.585844517E0,7.567899704E0
1.326156736E1,4.731208801E0,-4.974080086E0,7.275377274E0
1.327150564E1,4.592424870E0,-5.055436134E0,7.036095142E0
1.328144392E1,4.377070904E0,-4.792225361E0,6.978667259E0
1.329136715E1,4.204189301E0,-4.351347923E0,7.012166977E0
1.330130543E1,4.141975880E0,-3.848257065E0,7.088737011E0
1.331124371E1,4.237689018E0,-3.503092289E0,7.155735970E0
1.332120173E1,4.463212490E0,-3.455235958E0,7.160521984E0
1.333114001E1,4.721637249E0,-3.709473372E0,7.323233604E0
1.334107830E1,4.904089928E0,-4.222135544E0,7.558328629E0
1.335101814E1,5.114658356E0,-4.959722996E0,7.744968891E0
1.336095642E1,5.339583874E0,-5.596812248E0,7.888537884E0
1.337089470E1,5.416752338E0,-5.596812248E0,8.008178711E0
1.338081725E1,5.339583874E0,-4.897509575E0,8.128418922E0
1.339075554E1,5.172086239E0,-3.991826296E0,8.123632431E0
1.340069382E1,5.119443893E0,-3.215953588E0,7.979465485E0
1.341062986E1,5.215157032E0,-2.693720102E0,7.907680511E0
1.342056814E1,5.315655708E0,-2.492124796E0,8.008178711E0
1.343050642E1,5.330012321E0,-2.856431961E0,8.080561638E0
1.344044319E1,5.334797859E0,-3.695116282E0,8.099704742E0
1.345038147E1,5.282155991E0,-4.758726120E0,8.257631302E0
1.346031975E1,5.176871777E0,-5.682953835E0,8.362915039E0
1.347027293E1,5.090730190E0,-6.037689686E0,8.391629219E0
1.348021121E1,5.004588604E0,-5.596812248E0,8.286344528E0
1.349014949E1,4.985445976E0,-4.624129772E0,8.047062874E0
1.350006595E1,4.995017052E0,-3.709473372E0,7.893323898E0
1.351000423E1,5.023731232E0,-3.153740168E0,7.797610760E0
1.351994251E1,5.090730190E0,-3.143570662E0,7.634898663E0
1.352990100E1,5.162514687E0,-3.709473372E0,7.543971539E0
1.353983929E1,5.219942570E0,-4.437489510E0,7.596613884E0
1.354977757E1,4.975874901E0,-4.878366947E0,7.658827305E0
1.355968345E1,4.625924587E0,-4.849653244E0,7.601399422E0
1.356962178E1,4.381856441E0,-4.542773724E0,7.490731239E0
1.357956007E1,4.338785648E0,-4.111467361E0,7.308876991E0
1.358950126E1,4.448855400E0,-3.617947817E0,7.217949390E0
1.359943955E1,4.525425911E0,-3.273381472E0,7.112665176E0
1.360937783E1,4.511068821E0,-3.225524902E0,6.963712215E0
1.361932616E1,4.477569580E0,-3.397808075E0,6.901498795E0
1.362926444E1,4.496711731E0,-3.719044685E0,6.705287457E0
1.363920272E1,4.554139614E0,-4.116253376E0,6.547360897E0
1.364916064E1,4.601995945E0,-4.375276089E0,6.686144829E0
1.365909892E1,4.573282242E0,-4.303491592E0,6.700501442E0
1.366903720E1,4.511068821E0,-4.006183147E0,6.590431690E0
1.367897418E1,4.511068821E0,-3.733401537E0,6.518647194E0
1.368891246E1,4.434498787E0,-3.512663603E0,6.412764549E0
1.369885074E1,4.213760853E0,-3.412165165E0,6.364908218E0
1.370876793E1,3.945764542E0,-3.541377544E0,6.422336102E0
1.371870611E1,3.806980848E0,-3.781257868E0,6.576074600E0
1.372864423E1,3.850051641E0,-4.030111313E0,6.595217228E0
1.373859819E1,4.046263218E0,-4.217350006E0,6.638288021E0
1.374853637E1,4.372285366E0,-4.173680782E0,6.757929325E0
1.375847449E1,4.841876507E0,-3.920041800E0,6.671787739E0
1.376841522E1,5.291727066E0,-3.723830223E0,6.547360897E0
1.377835340E1,5.593821049E0,-3.598805189E0,6.614359856E0
1.378829152E1,5.565107346E0,-3.627519131E0,6.681358814E0
1.379821975E1,5.296513081E0,-3.915256023E0,6.796214581E0
1.380815793E1,4.961517811E0,-4.346562386E0,7.050451756E0
1.381809606E1,4.759922504E0,-4.719842434E0,7.227520943E0
1.382804423E1,4.802993298E0,-4.743771076E0,7.414160728E0
1.383798241E1,4.918447018E0,-4.241278172E0,7.423732281E0
1.384792054E1,5.129015446E0,-3.656233072E0,7.122236729E0
1.385783673E1,5.378467083E0,-3.292523861E0,6.944569588E0
1.386777486E1,5.330012321E0,-3.110071182E0,6.915855408E0
1.387771304E1,4.975874901E0,-3.119642496E0,6.887141705E0
1.388764439E1,4.525425911E0,-3.349951744E0,7.036095142E0
1.389758262E1,4.027120590E0,-3.550948858E0,7.131807804E0
1.390752074E1,3.749552965E0,-3.661018610E0,7.256234646E0
1.391745022E1,3.969692707E0,-3.738187075E0,7.284948349E0
1.392738840E1,4.664209366E0,-3.795614958E0,6.772286415E0
1.393732658E1,5.459823132E0,-3.757329702E0,6.518647194E0
1.394730126E1,5.895915031E0,-3.565305710E0,6.676573277E0
1.395723944E1,5.689534187E0,-3.397808075E0,6.748358250E0
1.396717757E1,5.018945694E0,-3.421736479E0,7.093522549E0
1.397709137E1,4.324428558E0,-3.546163082E0,7.428517818E0
1.398702949E1,3.864408493E0,-3.546163082E0,7.442874908E0
1.399696767E1,3.964907169E0,-3.632304668E0,7.447660446E0
1.400690283E1,4.774279594E0,-3.762115479E0,7.543971539E0
1.401684106E1,5.713462353E0,-3.651447296E0,7.428517818E0
1.402677918E1,6.293123722E0,-3.397808075E0,7.112665176E0
1.403673199E1,6.326622963E0,-3.426522017E0,6.901498795E0
1.404667012E1,5.761318684E0,-3.617947817E0,7.060023308E0
1.405660835E1,5.018945694E0,-3.786043644E0,7.457231998E0
1.406652408E1,4.755136967E0,-3.929612875E0,7.548757076E0
1.407646220E1,5.076373100E0,-4.130609989E0,7.615756035E0
1.408640038E1,5.694319725E0,-4.231706619E0,7.984251022E0
1.409634080E1,6.226124287E0,-4.226921082E0,7.902894974E0
1.410627902E1,6.652645111E0,-4.125824451E0,7.639684677E0
1.411621715E1,6.906284332E0,-4.054039955E0,7.740182877E0
1.412618267E1,6.619145870E0,-3.872185230E0,7.768897057E0
1.413612085E1,5.742176056E0,-3.570091486E0,7.773682594E0
1.414605897E1,5.100301266E0,-3.407379389E0,7.926823139E0
1.415599663E1,4.837090969E0,-3.292523861E0,8.171489716E0
1.416593481E1,4.908875465E0,-3.110071182E0,8.444271088E0
1.417587293E1,5.253442287E0,-3.004786968E0,8.386843681E0
1.418580871E1,5.751747608E0,-2.980858803E0,8.166703224E0
1.419574689E1,6.250052929E0,-2.803789854E0,8.094919205E0
1.420568501E1,6.609574318E0,-2.655434847E0,7.907680511E0
1.421561137E1,6.619145870E0,-2.621935368E0,7.893323898E0
1.422554949E1,6.326622963E0,-2.597409010E0,8.008178711E0
1.423548767E1,6.139982700E0,-2.650649309E0,8.219346046E0
1.424544210E1,5.967699528E0,-2.760719061E0,8.262416840E0
1.425538027E1,5.861817360E0,-2.827718258E0,8.200202942E0
1.426531840E1,6.044270039E0,-2.928216696E0,7.993822098E0
1.427525298E1,6.187839508E0,-3.047857761E0,7.677969456E0
1.428519111E1,6.015556335E0,-3.220739365E0,7.428517818E0
1.429512929E1,5.402395248E0,-3.335594654E0,7.280162811E0
1.430505934E1,4.668995380E0,-3.311666489E0,7.404589653E0
1.431499751E1,4.310071945E0,-3.230310678E0,7.485945702E0
1.432493569E1,4.439284325E0,-3.345165968E0,7.457231998E0
1.433488132E1,5.081159115E0,-3.771686792E0,7.361518860E0
1.434481949E1,5.953342915E0,-4.241278172E0,7.404589653E0
1.435475762E1,6.662216663E0,-4.380061626E0,7.466803074E0
1.436467189E1,6.767500877E0,-4.202394962E0,7.165307522E0
1.437461007E1,6.216553211E0,-3.872185230E0,7.040880680E0
1.438454824E1,5.435894966E0,-3.440878868E0,7.256234646E0
1.439447757E1,4.750350952E0,-2.923431158E0,7.442874908E0
1.440441574E1,4.377070904E0,-2.501696110E0,7.634898663E0
1.441435392E1,4.549354076E0,-2.477767944E0,7.807182312E0
1.442433746E1,5.291727066E0,-2.803789854E0,7.606184959E0
1.443427559E1,6.245266914E0,-3.302095175E0,7.351947784E0
1.444421376E1,6.997809887E0,-3.742972851E0,7.308876991E0
1.445413173E1,7.342376232E0,-3.762115479E0,7.356733322E0
1.446406986E1,7.208378315E0,-3.541377544E0,7.433303356E0
1.447400804E1,6.714858532E0,-3.345165968E0,7.654041290E0
1.448394892E1,6.240481377E0,-3.306880951E0,7.907680511E0
1.449388705E1,6.034698486E0,-3.397808075E0,8.133204460E0
1.450382522E1,6.192625046E0,-3.656233072E0,8.157132149E0
1.451374001E1,6.513861656E0,-4.049253941E0,8.176275253E0
1.452367819E1,6.533003807E0,-4.144967079E0,8.123632431E0
1.453361637E1,6.326622963E0,-3.814757586E0,7.974679470E0
1.454357392E1,6.005984783E0,-3.239881754E0,7.831110477E0
1.455351205E1,5.593821049E0,-2.621935368E0,7.850253105E0
1.456345022E1,5.176871777E0,-2.271985054E0,7.936394691E0
1.457339293E1,5.042873859E0,-2.329412937E0,7.898109436E0
1.458333106E1,5.105087280E0,-2.760719061E0,7.965108395E0
1.459326923E1,5.210371494E0,-3.273381472E0,8.214560509E0
1.460320830E1,5.301298618E0,-3.546163082E0,8.463413239E0
1.461314642E1,5.325226784E0,-3.397808075E0,8.549555779E0
1.462308460E1,5.469394207E0,-3.062214851E0,8.353343964E0
1.463299668E1,5.780461311E0,-2.741576433E0,8.142775536E0
1.464293486E1,5.895915031E0,-2.617149830E0,8.061419487E0
1.465287304E1,5.924628735E0,-2.727219582E0,8.123632431E0
1.466282413E1,6.010770321E0,-3.004786968E0,8.176275253E0
1.467276225E1,6.096911907E0,-3.268595695E0,8.157132149E0
1.468270043E1,6.211767673E0,-3.460021496E0,8.286344528E0
1.469265330E1,6.221338749E0,-3.594019651E0,8.617152214E0
1.470259142E1,6.053841114E0,-3.483949661E0,8.578866959E0
1.471252960E1,6.020341873E0,-3.100499868E0,8.401200294E0
1.472243741E1,6.092126369E0,-2.889931440E0,8.348558426E0
1.473237543E1,6.240481377E0,-3.004786968E0,8.257631302E0
1.474231356E1,6.528218269E0,-3.354737282E0,8.118846893E0
1.475227840E1,6.710072994E0,-3.665804386E0,8.252845764E0
1.476221647E1,6.633502483E0,-3.790829182E0,8.583653450E0
1.477215455E1,6.412764549E0,-3.574877024E0,8.736793518E0
1.478207439E1,6.149554253E0,-2.952144861E0,8.588438988E0
1.479201246E1,6.029912949E0,-2.410768747E0,8.425128937E0
1.480195054E1,6.111268997E0,-2.243271112E0,8.142775536E0
1.481187652E1,6.159125328E0,-2.463410854E0,7.912466049E0
1.482181465E1,6.034698486E0,-2.995215654E0,7.850253105E0
1.483175272E1,5.871388435E0,-3.469592810E0,8.003393173E0
1.484169741E1,5.737390518E0,-3.651447296E0,8.214560509E0
1.485163548E1,5.608178139E0,-3.617947817E0,8.353343964E0
1.486157361E1,5.502893925E0,-3.421736479E0,8.568697929E0
1.487154449E1,5.498108387E0,-3.067000389E0,8.578866959E0
1.488148257E1,5.512465000E0,-2.799004316E0,8.161917686E0
1.489142064E1,5.593821049E0,-2.861217737E0,7.754539967E0
1.490133538E1,5.813961029E0,-3.182454109E0,7.457231998E0
1.491127340E1,5.880959988E0,-3.555734396E0,7.251449108E0
1.492121152E1,5.727818966E0,-3.771686792E0,7.150950432E0
1.493116147E1,5.502893925E0,-3.809971809E0,7.203592777E0
1.494109954E1,5.291727066E0,-3.632304668E0,7.505686283E0
1.495103762E1,5.081159115E0,-3.306880951E0,7.855038643E0
1.496095199E1,4.961517811E0,-3.129213810E0,8.080561638E0
1.497089007E1,4.999803066E0,-3.119642496E0,8.080561638E0
1.498082819E1,5.172086239E0,-3.196810961E0,8.042277336E0
1.499080152E1,5.325226784E0,-3.393022537E0,7.974679470E0
1.500073960E1,5.603392601E0,-3.589233875E0,8.047062874E0
1.501067767E1,5.924628735E0,-3.665804386E0,8.185846329E0
1.502060465E1,6.101697922E0,-3.632304668E0,8.185846329E0
1.503054267E1,6.010770321E0,-3.594019651E0,8.185846329E0
1.504048080E1,5.790032387E0,-3.354737282E0,8.420342445E0
1.505039054E1,5.579464436E0,-3.047857761E0,8.315058708E0
1.506032866E1,5.560321808E0,-2.813361168E0,7.883752346E0
1.507026673E1,5.727818966E0,-2.784647465E0,7.855038643E0
1.508023902E1,5.842674732E0,-2.880360365E0,7.926823139E0
1.509017710E1,5.900700569E0,-3.153740168E0,7.888537884E0
1.510011517E1,6.020341873E0,-3.483949661E0,8.094919205E0
1.511002538E1,6.206982136E0,-3.695116282E0,8.477770805E0
1.511996345E1,6.168696880E0,-3.546163082E0,8.439485550E0
1.512990158E1,5.900700569E0,-3.244667530E0,8.161917686E0
1.513985288E1,5.598606586E0,-3.177668571E0,8.133204460E0
1.514979090E1,5.416752338E0,-3.196810961E0,8.262416840E0
1.515972902E1,5.344369411E0,-3.316452265E0,8.209774017E0
1.516965189E1,5.445466042E0,-3.483949661E0,8.090133667E0
1.517959001E1,5.593821049E0,-3.699902058E0,7.859824181E0
1.518952809E1,5.699105263E0,-3.790829182E0,7.644470215E0
1.519949444E1,5.794818401E0,-3.714258909E0,7.553543091E0
1.520943251E1,5.732604980E0,-3.738187075E0,7.591827869E0
1.521937059E1,5.536393166E0,-3.829114437E0,7.587042332E0
1.522927699E1,5.172086239E0,-3.819543123E0,7.802396297E0
1.523921507E1,4.716851711E0,-3.641875982E0,7.749754429E0
1.524915314E1,4.520640373E0,-3.469592810E0,7.721040249E0
1.525910960E1,4.606781960E0,-3.402593851E0,7.864609718E0
1.526904767E1,4.779065132E0,-3.436093330E0,7.811967850E0
1.527898569E1,4.985445976E0,-3.464807272E0,7.485945702E0
1.528894048E1,5.143372059E0,-3.546163082E0,7.342376232E0
1.529887856E1,5.143372059E0,-3.608376503E0,7.423732281E0
1.530881663E1,5.085944653E0,-3.622733593E0,7.620542049E0
1.531873845E1,5.004588604E0,-3.622733593E0,7.768897057E0
1.532867652E1,4.870590687E0,-3.555734396E0,7.969893932E0
1.533861460E1,4.649852753E0,-3.546163082E0,8.008178711E0
1.534856507E1,4.525425911E0,-3.608376503E0,7.840681553E0
1.535850314E1,4.520640373E0,-3.857828379E0,7.577471256E0
1.536844121E1,4.697709084E0,-4.250849247E0,7.347161770E0
1.537835564E1,5.095515728E0,-4.600201607E0,7.217949390E0
1.538829371E1,5.469394207E0,-4.695914268E0,7.318448067E0
1.539823178E1,5.560321808E0,-4.380061626E0,7.481160164E0
1.540819106E1,5.392824173E0,-3.848257065E0,7.567899704E0
1.541812913E1,5.119443893E0,-3.330809116E0,7.615756035E0
1.542806720E1,4.870590687E0,-3.114856958E0,7.668398380E0
1.543797934E1,4.697709084E0,-3.263810158E0,7.462017536E0
1.544791741E1,4.664209366E0,-3.752544165E0,7.395018578E0
1.545785548E1,4.769493580E0,-4.260420799E0,7.582256794E0
1.546779236E1,5.124229908E0,-4.499702930E0,7.485945702E0
1.547773043E1,5.450251579E0,-4.490131855E0,7.342376232E0
1.548766850E1,5.450251579E0,-4.211966038E0,7.189235687E0
1.549761163E1,4.990231514E0,-3.632304668E0,6.963712215E0
1.550754970E1,4.286143780E0,-3.038286448E0,7.021738052E0
1.551748777E1,3.643670797E0,-2.732005358E0,7.141379356E0
1.552743548E1,3.260818958E0,-2.866003275E0,7.069594383E0
1.553737356E1,3.313461065E0,-3.302095175E0,6.997809887E0
1.554731158E1,3.658027649E0,-3.881756544E0,6.891927242E0
1.555726491E1,3.998406649E0,-4.279563427E0,6.686144829E0
1.556720298E1,4.103690624E0,-4.308277130E0,6.580860615E0
1.557714106E1,3.921836376E0,-3.948755503E0,6.446862221E0
1.558708236E1,3.629313707E0,-3.412165165E0,6.374479294E0
1.559702043E1,3.375674486E0,-3.004786968E0,6.379265308E0
1.560695850E1,3.346960783E0,-2.861217737E0,6.417550564E0
1.561687876E1,3.543172121E0,-2.918645382E0,6.533003807E0
1.562681684E1,3.931407690E0,-3.263810158E0,6.547360897E0
1.563675491E1,4.357928276E0,-3.757329702E0,6.431907177E0
1.564668293E1,4.539782524E0,-4.178466320E0,6.283552170E0
1.565662106E1,4.405784607E0,-4.408775806E0,6.192625046E0
1.566655913E1,4.137190342E0,-4.456632137E0,6.297909260E0
1.567650267E1,3.802195072E0,-4.327419758E0,6.407979012E0
1.568644069E1,3.614956856E0,-3.948755503E0,6.576074600E0
1.569637876E1,3.662813187E0,-3.531806231E0,6.734001160E0
1.570634277E1,3.984049797E0,-3.340380430E0,6.738786697E0
1.571628085E1,4.367499352E0,-3.402593851E0,6.523432732E0
1.572621892E1,4.783850670E0,-3.838685751E0,6.407979012E0
1.573613585E1,5.148158073E0,-4.336990833E0,6.417550564E0
1.574607397E1,5.378467083E0,-4.581058979E0,6.561717987E0
1.575601210E1,5.383252621E0,-4.561916351E0,6.700501442E0
1.576593048E1,5.085944653E0,-4.442275047E0,6.944569588E0
1.577586866E1,4.856233597E0,-4.351347923E0,7.284948349E0
1.578580678E1,4.966303349E0,-4.217350006E0,7.582256794E0
1.579574538E1,5.176871777E0,-4.092324734E0,7.596613884E0
1.580568356E1,5.407180786E0,-3.958326817E0,7.567899704E0
1.581562168E1,5.450251579E0,-3.915256023E0,7.563114166E0
1.582557163E1,5.267798901E0,-3.991826296E0,7.495516777E0
1.583550981E1,5.157729149E0,-4.178466320E0,7.539186001E0
1.584544793E1,5.162514687E0,-4.447061062E0,7.567899704E0
1.585538710E1,5.306084156E0,-4.816154003E0,7.505686283E0
1.586532522E1,5.531607628E0,-5.041079044E0,7.610970497E0
1.587526335E1,5.608178139E0,-4.940580368E0,7.677969456E0
1.588521371E1,5.550750256E0,-4.533202648E0,7.835896015E0
1.589515184E1,5.450251579E0,-3.915256023E0,7.922037601E0
1.590508996E1,5.210371494E0,-3.393022537E0,7.912466049E0
1.591499949E1,5.071587563E0,-3.263810158E0,7.677969456E0
1.592493767E1,5.109872818E0,-3.541377544E0,7.630113125E0
1.593487580E1,5.109872818E0,-4.020540237E0,7.620542049E0
1.594481955E1,5.181657314E0,-4.423132420E0,7.529614449E0
1.595475772E1,5.162514687E0,-4.676771641E0,7.520043373E0
1.596469585E1,5.076373100E0,-4.902295589E0,7.505686283E0
1.597465819E1,4.980660439E0,-5.074578762E0,7.385447025E0
1.598459632E1,4.947160721E0,-5.036293507E0,7.371089935E0
1.599453444E1,4.788636208E0,-4.768297195E0,7.342376232E0
1.600444548E1,4.611567497E0,-4.384847641E0,7.466803074E0
1.601438366E1,4.606781960E0,-4.063611031E0,7.620542049E0
1.602432178E1,4.630710125E0,-3.762115479E0,7.730611801E0
1.603429788E1,4.659423828E0,-3.594019651E0,7.591827869E0
1.604423600E1,4.621138573E0,-3.469592810E0,7.414160728E0
1.605417413E1,4.606781960E0,-3.416950703E0,7.438089371E0
1.606410804E1,4.712066174E0,-3.661018610E0,7.457231998E0
1.607404616E1,4.875376225E0,-4.197608948E0,7.457231998E0
1.608398428E1,5.047659397E0,-4.738985062E0,7.433303356E0
1.609391142E1,5.148158073E0,-4.926223755E0,7.520043373E0
1.610384955E1,4.966303349E0,-4.590630054E0,7.625327587E0
1.611378767E1,4.654638290E0,-3.915256023E0,7.606184959E0
1.612371022E1,4.448855400E0,-3.302095175E0,7.711469173E0
1.613364835E1,4.434498787E0,-3.028715372E0,7.725826263E0
1.614358647E1,4.568496704E0,-3.201596737E0,7.773682594E0
1.615351850E1,4.880161762E0,-3.695116282E0,7.850253105E0
1.616345663E1,5.277370453E0,-4.298706055E0,7.811967850E0
1.617339475E1,5.589035511E0,-4.878366947E0,7.725826263E0
1.618334439E1,5.593821049E0,-5.189434052E0,7.587042332E0
1.619328251E1,5.282155991E0,-4.959722996E0,7.466803074E0
1.620322064E1,4.807778835E0,-4.356133461E0,7.520043373E0
1.621318048E1,4.429712772E0,-3.641875982E0,7.596613884E0
1.622311861E1,4.329214573E0,-3.076571703E0,7.749754429E0
1.623305673E1,4.496711731E0,-2.966501951E0,7.969893932E0
1.624299215E1,4.802993298E0,-3.364308596E0,7.912466049E0
1.625293033E1,5.253442287E0,-4.063611031E0,7.716254711E0
1.626286850E1,5.522036552E0,-4.648057938E0,7.634898663E0
1.627277866E1,5.464608669E0,-4.768297195E0,7.730611801E0
1.628271684E1,5.215157032E0,-4.456632137E0,7.888537884E0
1.629265507E1,4.870590687E0,-4.125824451E0,7.936394691E0
1.630261371E1,4.755136967E0,-3.934398651E0,7.917252064E0
1.631255189E1,4.884947300E0,-3.910470486E0,7.907680511E0
1.632249007E1,5.105087280E0,-4.001397610E0,7.855038643E0
1.633243335E1,5.392824173E0,-4.130609989E0,7.917252064E0
1.634237152E1,5.488536835E0,-4.159324169E0,7.888537884E0
1.635230970E1,5.435894966E0,-4.087539196E0,7.783253670E0
1.636221585E1,5.315655708E0,-4.111467361E0,7.759325504E0
1.637215402E1,5.100301266E0,-4.236492634E0,7.735397339E0
1.638209225E1,4.932804108E0,-4.313062668E0,7.735397339E0
1.639207017E1,4.899304390E0,-4.313062668E0,7.749754429E0
1.640200835E1,4.913661480E0,-4.236492634E0,7.716254711E0
1.641194652E1,5.066802025E0,-4.116253376E0,7.701898098E0
1.642187444E1,5.243870735E0,-3.934398651E0,7.682755470E0
1.643181257E1,5.368896008E0,-3.853042603E0,7.620542049E0
1.644175080E1,5.416752338E0,-3.967898130E0,7.471588612E0
1.645165908E1,5.407180786E0,-4.279563427E0,7.284948349E0
1.646159731E1,5.349154949E0,-4.724628448E0,7.079165936E0
1.647153548E1,5.181657314E0,-5.127220631E0,7.170093060E0
1.648150361E1,4.908875465E0,-5.208576679E0,7.299305439E0
1.649144179E1,4.759922504E0,-4.864010334E0,7.284948349E0
1.650137996E1,4.755136967E0,-4.384847641E0,7.194021225E0
1.651132512E1,4.759922504E0,-3.967898130E0,7.150950432E0
1.652126330E1,4.625924587E0,-3.680759430E0,7.069594383E0
1.653120147E1,4.477569580E0,-3.641875982E0,7.002595425E0
1.654111882E1,4.458426952E0,-3.795614958E0,6.997809887E0
1.655105694E1,4.520640373E0,-3.977469444E0,6.934998035E0
1.656099517E1,4.520640373E0,-4.073182583E0,6.949355125E0
1.657091554E1,4.372285366E0,-4.116253376E0,6.796214581E0
1.658085371E1,4.256831646E0,-4.077968121E0,6.542575359E0
1.659079194E1,4.208974838E0,-3.948755503E0,6.566503525E0
1.660073569E1,4.079762459E0,-3.723830223E0,6.576074600E0
1.661067392E1,3.984049797E0,-3.584448338E0,6.552146435E0
1.662061210E1,4.036691666E0,-3.503092289E0,6.609574318E0
1.663058418E1,4.065405846E0,-3.464807272E0,6.571289062E0
1.664052236E1,4.204189301E0,-3.527020693E0,6.427121639E0
1.665046054E1,4.578067780E0,-3.622733593E0,6.360122681E0
1.666037038E1,4.904089928E0,-3.632304668E0,6.345765591E0
1.667030861E1,5.109872818E0,-3.584448338E0,6.159125328E0
1.668024678E1,5.085944653E0,-3.695116282E0,6.010770321E0
1.669020283E1,4.731208801E0,-3.876971006E0,6.068198204E0
1.670014100E1,4.204189301E0,-3.958326817E0,6.264409542E0
1.671007918E1,3.729812384E0,-3.872185230E0,6.407979012E0
1.671998767E1,3.528815269E0,-3.795614958E0,6.485147476E0
1.672992585E1,3.763910055E0,-3.790829182E0,6.571289062E0
1.673986408E1,4.444069862E0,-3.876971006E0,6.580860615E0
1.674979981E1,5.119443893E0,-3.891327858E0,6.403193474E0
1.675973783E1,5.320441246E0,-3.757329702E0,6.240481377E0
1.676967590E1,5.018945694E0,-3.742972851E0,6.360122681E0
1.677963767E1,4.515854359E0,-3.690330744E0,6.499504566E0
1.678957564E1,4.132404804E0,-3.546163082E0,6.547360897E0
1.679951371E1,3.988835335E0,-3.469592810E0,6.834499836E0
1.680944043E1,4.108476639E0,-3.450450182E0,7.328019142E0
1.681937845E1,4.616353035E0,-3.531806231E0,7.380661488E0
1.682931647E1,5.397609711E0,-3.565305710E0,7.069594383E0
1.683924319E1,6.001199245E0,-3.522234917E0,6.805785656E0
1.684918121E1,6.168696880E0,-3.431307554E0,6.676573277E0
1.685911929E1,5.934200287E0,-3.335594654E0,6.738786697E0
1.686906611E1,5.507679462E0,-3.316452265E0,6.834499836E0
1.687900408E1,4.980660439E0,-3.488735437E0,6.877570629E0
1.688894215E1,4.573282242E0,-3.742972851E0,6.963712215E0
1.689888512E1,4.487140656E0,-3.972683907E0,7.160521984E0
1.690882314E1,4.582853794E0,-4.030111313E0,7.150950432E0
1.691876116E1,5.081159115E0,-4.077968121E0,6.944569588E0
1.692869887E1,5.732604980E0,-3.972683907E0,6.872784615E0
1.693863689E1,6.087340832E0,-3.656233072E0,6.863213539E0
1.694857491E1,6.058627129E0,-3.445664644E0,6.829713821E0
1.695853376E1,5.651248932E0,-3.579662561E0,7.040880680E0
1.696847179E1,5.042873859E0,-3.948755503E0,7.337590694E0
1.697840981E1,4.463212490E0,-4.168895245E0,7.342376232E0
1.698835293E1,4.458426952E0,-4.192823410E0,7.337590694E0
1.699829095E1,4.999803066E0,-3.987040758E0,7.380661488E0
1.700822897E1,5.502893925E0,-3.450450182E0,7.495516777E0
1.701814423E1,5.938985825E0,-2.861217737E0,7.466803074E0
1.702808220E1,6.159125328E0,-2.693720102E0,7.337590694E0
1.703802027E1,6.250052929E0,-3.067000389E0,7.318448067E0
1.704797512E1,6.374479294E0,-3.699902058E0,7.457231998E0
1.705791314E1,6.369693756E0,-4.164109707E0,7.754539967E0
1.706785116E1,6.456433773E0,-4.327419758E0,8.114061356E0
1.707778283E1,6.729215622E0,-4.087539196E0,8.415556908E0
1.708772085E1,6.959524632E0,-3.507878065E0,8.444271088E0
1.709765887E1,7.131807804E0,-2.875574589E0,8.315058708E0
1.710758293E1,7.404589653E0,-2.429911375E0,8.377271652E0
1.711752100E1,7.721040249E0,-2.324627161E0,8.396414757E0
1.712745902E1,7.816753387E0,-2.587837696E0,8.219346046E0
1.713741121E1,7.524828911E0,-3.124428272E0,8.161917686E0
1.714734918E1,6.743572235E0,-3.733401537E0,8.286344528E0
1.715728725E1,5.737390518E0,-4.274777889E0,8.492127419E0
1.716720121E1,5.052444935E0,-4.614558697E0,8.520841599E0
1.717713923E1,4.932804108E0,-4.624129772E0,8.252845764E0
1.718707731E1,5.320441246E0,-4.241278172E0,7.792825222E0
1.719704606E1,5.727818966E0,-3.603590965E0,7.466803074E0
1.720698408E1,5.756533146E0,-2.952144861E0,7.179664135E0
1.721692210E1,5.526822090E0,-2.544766903E0,7.050451756E0
1.722685007E1,5.263013363E0,-2.439482689E0,7.064808846E0
1.723678809E1,5.162514687E0,-2.636292458E0,7.442874908E0
1.724672611E1,5.081159115E0,-3.081357241E0,7.926823139E0
1.725668392E1,5.033302307E0,-3.440878868E0,8.066205025E0
1.726662210E1,5.119443893E0,-3.723830223E0,7.950751305E0
1.727656033E1,5.114658356E0,-3.781257868E0,7.754539967E0
1.728649012E1,5.129015446E0,-3.527020693E0,7.539186001E0
1.729642835E1,5.176871777E0,-3.182454109E0,7.256234646E0
1.730636652E1,5.310869694E0,-3.009572744E0,7.213163853E0
1.731626975E1,5.464608669E0,-2.990430117E0,7.323233604E0
1.732620798E1,5.699105263E0,-3.124428272E0,7.687541008E0
1.733614621E1,6.125626087E0,-3.359523058E0,7.898109436E0
1.734608361E1,6.566503525E0,-3.546163082E0,7.893323898E0
1.735602184E1,6.906284332E0,-3.479164124E0,8.099704742E0
1.736596001E1,6.954140663E0,-3.090928555E0,8.114061356E0
1.737591111E1,6.595217228E0,-2.621935368E0,7.845467091E0
1.738584929E1,6.039484501E0,-2.372483730E0,7.759325504E0
1.739578751E1,5.339583874E0,-2.520838737E0,7.811967850E0
1.740571173E1,4.827519894E0,-3.047857761E0,7.620542049E0
1.741564996E1,5.014159679E0,-3.714258909E0,7.644470215E0
1.742558819E1,5.349154949E0,-4.246063709E0,8.056633949E0
1.743553392E1,5.612963676E0,-4.241278172E0,8.262416840E0
1.744547215E1,5.991627693E0,-3.833899975E0,7.945965767E0
1.745541033E1,6.360122681E0,-3.364308596E0,7.706683636E0
1.746538210E1,6.163911343E0,-2.980858803E0,7.917252064E0
1.747532027E1,5.962913990E0,-2.641077995E0,7.984251022E0
1.748525850E1,6.063412666E0,-2.535195589E0,7.998608112E0
1.749516699E1,6.216553211E0,-2.722434044E0,8.410771370E0
1.750510522E1,6.135197163E0,-3.009572744E0,8.410771370E0
1.751504340E1,5.919843197E0,-3.335594654E0,8.195417404E0
1.752497637E1,5.737390518E0,-3.579662561E0,8.176275253E0
1.753491460E1,5.598606586E0,-3.507878065E0,7.955537319E0
1.754485277E1,5.742176056E0,-3.254238844E0,7.883752346E0
1.755478866E1,5.866602898E0,-3.028715372E0,7.969893932E0
1.756472689E1,5.809175014E0,-2.842075109E0,7.883752346E0
1.757466512E1,5.852245808E0,-2.952144861E0,7.912466049E0
1.758464293E1,5.910272121E0,-3.364308596E0,8.036892891E0
1.759458111E1,6.063412666E0,-3.594019651E0,8.181060791E0
1.760451934E1,6.312266350E0,-3.603590965E0,8.012965202E0
1.761442210E1,6.393621922E0,-3.541377544E0,7.840681553E0
1.762436027E1,6.235695839E0,-3.388236761E0,7.740182877E0
1.763429845E1,5.934200287E0,-3.211168051E0,7.639684677E0
1.764426064E1,5.560321808E0,-3.100499868E0,7.677969456E0
1.765419887E1,5.200799942E0,-3.086143017E0,7.936394691E0
1.766413704E1,5.038087845E0,-3.095714331E0,7.979465485E0
1.767403949E1,5.119443893E0,-3.129213810E0,7.831110477E0
1.768397772E1,5.215157032E0,-3.345165968E0,7.735397339E0
1.769391590E1,5.522036552E0,-3.627519131E0,7.802396297E0
1.770386033E1,5.857031822E0,-3.685544968E0,7.845467091E0
1.771379856E1,5.977271080E0,-3.690330744E0,7.783253670E0
1.772373673E1,5.833103180E0,-3.574877024E0,7.759325504E0
1.773371043E1,5.555535793E0,-3.168097258E0,7.778468132E0
1.774364866E1,5.364109993E0,-2.799004316E0,7.874181271E0
1.775358684E1,5.455037594E0,-2.794218540E0,8.171489716E0
1.776348142E1,5.612963676E0,-2.976073265E0,8.123632431E0
1.777341944E1,5.746961594E0,-3.168097258E0,8.012965202E0
1.778335746E1,5.905486107E0,-3.349951744E0,8.032107353E0
1.779333434E1,6.053841114E0,-3.393022537E0,8.233702660E0
1.780327231E1,6.221338749E0,-3.206382275E0,8.410771370E0
1.781321033E1,6.437291145E0,-2.952144861E0,8.429914474E0
1.782312892E1,6.556932449E0,-2.961716175E0,8.214560509E0
1.783306689E1,6.571289062E0,-3.244667530E0,8.185846329E0
1.784300491E1,6.489933014E0,-3.527020693E0,8.099704742E0
1.785295356E1,6.513861656E0,-3.622733593E0,7.697112083E0
1.786289158E1,6.638288021E0,-3.641875982E0,7.596613884E0
1.787282955E1,6.681358814E0,-3.574877024E0,7.711469173E0
1.788275694E1,6.556932449E0,-3.335594654E0,7.687541008E0
1.789269496E1,6.245266914E0,-3.090928555E0,7.783253670E0
1.790263298E1,5.761318684E0,-2.889931440E0,8.008178711E0
1.791260095E1,5.296513081E0,-2.770290375E0,8.166703224E0
1.792253897E1,5.090730190E0,-2.775076151E0,8.219346046E0
1.793247694E1,5.100301266E0,-2.985644341E0,8.267202377E0
1.794240720E1,5.210371494E0,-3.416950703E0,8.137989998E0
1.795234517E1,5.407180786E0,-3.857828379E0,7.744968891E0
1.796228286E1,5.574678421E0,-4.116253376E0,7.485945702E0
1.797218124E1,5.627320766E0,-4.164109707E0,7.342376232E0
1.798211926E1,5.656034470E0,-4.030111313E0,7.213163853E0
1.799205728E1,5.560321808E0,-3.723830223E0,7.452445984E0
1.800203010E1,5.310869694E0,-3.349951744E0,7.850253105E0
1.801196807E1,5.210371494E0,-3.067000389E0,7.960322857E0
1.802190609E1,5.368896008E0,-2.966501951E0,7.922037601E0
1.803184692E1,5.603392601E0,-2.990430117E0,7.902894974E0
1.804178494E1,5.866602898E0,-3.129213810E0,7.744968891E0
1.805172291E1,6.020341873E0,-3.124428272E0,7.409375191E0
1.806165088E1,6.135197163E0,-3.086143017E0,7.256234646E0
1.807158885E1,6.087340832E0,-3.211168051E0,7.241877556E0
1.808152687E1,5.929414749E0,-3.359523058E0,7.371089935E0
1.809147754E1,5.679962635E0,-3.469592810E0,7.615756035E0
1.810141557E1,5.344369411E0,-3.479164124E0,7.864609718E0
1.811135354E1,5.085944653E0,-3.421736479E0,8.042277336E0
1.812128452E1,5.263013363E0,-3.359523058E0,8.017750740E0
1.813122249E1,5.636891842E0,-3.369094372E0,7.955537319E0
1.814116051E1,5.910272121E0,-3.450450182E0,7.802396297E0
1.815109994E1,6.106483459E0,-3.498306751E0,7.529614449E0
1.816103791E1,5.982056618E0,-3.460021496E0,7.351947784E0
1.817097593E1,5.732604980E0,-3.345165968E0,7.510472298E0
1.818090213E1,5.493322372E0,-3.354737282E0,7.855038643E0
1.819084010E1,5.339583874E0,-3.474378586E0,8.142775536E0
1.820077812E1,5.282155991E0,-3.555734396E0,8.228917122E0
1.821071140E1,5.215157032E0,-3.469592810E0,8.463413239E0
1.822064947E1,5.052444935E0,-3.388236761E0,8.501698494E0
1.823058744E1,5.129015446E0,-3.479164124E0,8.305487633E0
1.824051218E1,5.493322372E0,-3.507878065E0,8.022536278E0
1.825045015E1,5.818746567E0,-3.498306751E0,7.912466049E0
1.826038817E1,5.943771362E0,-3.426522017E0,7.936394691E0
1.827036328E1,5.742176056E0,-3.460021496E0,7.883752346E0
1.828030145E1,5.402395248E0,-3.541377544E0,8.104490280E0
1.829023963E1,5.124229908E0,-3.541377544E0,8.219346046E0
1.830014958E1,5.047659397E0,-3.574877024E0,8.017750740E0
1.831008775E1,5.047659397E0,-3.641875982E0,7.960322857E0
1.832002593E1,4.779065132E0,-3.651447296E0,7.955537319E0
1.832999192E1,4.601995945E0,-3.546163082E0,7.807182312E0
1.833993010E1,4.573282242E0,-3.460021496E0,7.754539967E0
1.834986828E1,4.837090969E0,-3.565305710E0,7.639684677E0
1.835977281E1,5.301298618E0,-3.800400496E0,7.587042332E0
1.836971098E1,5.498108387E0,-3.929612875E0,7.711469173E0
1.837964921E1,5.258227825E0,-3.924827337E0,7.744968891E0
1.838959281E1,4.995017052E0,-3.829114437E0,7.855038643E0
1.839953098E1,4.932804108E0,-3.641875982E0,8.032107353E0
1.840946921E1,5.042873859E0,-3.426522017E0,7.969893932E0
1.841941598E1,5.172086239E0,-3.426522017E0,7.649255753E0
1.842935411E1,5.291727066E0,-3.872185230E0,7.476374149E0
1.843929234E1,5.708676815E0,-4.418346882E0,7.380661488E0
1.844924390E1,6.154339790E0,-4.797011375E0,7.462017536E0
1.845918208E1,6.331408501E0,-4.816154003E0,7.418946743E0
1.846912025E1,6.168696880E0,-4.384847641E0,7.332805157E0
1.847906447E1,5.478965759E0,-3.738187075E0,7.481160164E0
1.848900265E1,4.496711731E0,-3.292523861E0,7.563114166E0
1.849894083E1,3.964907169E0,-3.138785124E0,7.692326546E0
1.850884411E1,4.137190342E0,-3.230310678E0,7.687541008E0
1.851878234E1,4.932804108E0,-3.550948858E0,7.466803074E0
1.852872051E1,5.895915031E0,-3.948755503E0,7.308876991E0
1.853869166E1,6.340980053E0,-4.303491592E0,7.131807804E0
1.854862984E1,6.001199245E0,-4.389633179E0,6.963712215E0
1.855856801E1,5.033302307E0,-3.920041800E0,7.083951473E0
1.856850312E1,3.988835335E0,-3.177668571E0,7.208378315E0
1.857844130E1,3.413959742E0,-2.775076151E0,7.083951473E0
1.858837947E1,3.202793121E0,-2.655434847E0,6.925426960E0
1.859831114E1,3.318246841E0,-2.779861689E0,6.887141705E0
1.860824932E1,3.763910055E0,-3.124428272E0,6.781857491E0
1.861818749E1,4.247260094E0,-3.527020693E0,6.470790863E0
1.862810562E1,4.635495663E0,-3.829114437E0,6.235695839E0
1.863804380E1,4.837090969E0,-3.891327858E0,6.101697922E0
1.864798197E1,4.740779877E0,-3.781257868E0,5.885745525E0
1.865792588E1,4.439284325E0,-3.665804386E0,5.895316601E0
1.866786400E1,4.031906128E0,-3.598805189E0,6.053841114E0
1.867780218E1,3.710669756E0,-3.651447296E0,6.159125328E0
1.868772796E1,3.504886866E0,-3.872185230E0,6.149554253E0
1.869766619E1,3.375674486E0,-4.188037872E0,6.125626087E0
1.870760432E1,3.514458179E0,-4.399204254E0,6.240481377E0
1.871754572E1,3.883551121E0,-4.293920040E0,6.197410583E0
1.872748390E1,4.310071945E0,-4.030111313E0,6.211767673E0
1.873742213E1,4.592424870E0,-3.695116282E0,6.312266350E0
1.874738801E1,4.616353035E0,-3.359523058E0,6.393621922E0
1.875732619E1,4.539782524E0,-3.172882795E0,6.422336102E0
1.876726437E1,4.534996986E0,-3.273381472E0,6.470790863E0
1.877717937E1,4.496711731E0,-3.766901016E0,6.662216663E0
1.878711739E1,4.625924587E0,-4.509274483E0,6.767500877E0
1.879705546E1,4.822733879E0,-5.055436134E0,6.993024349E0
1.880701572E1,4.999803066E0,-5.060221672E0,7.203592777E0
1.881695374E1,5.253442287E0,-4.470989227E0,7.184450150E0
1.882689182E1,5.349154949E0,-3.690330744E0,7.289734364E0
1.883679885E1,5.339583874E0,-3.076571703E0,7.390232563E0
1.884673692E1,5.263013363E0,-2.913859844E0,7.399804115E0
1.885667499E1,5.296513081E0,-3.220739365E0,7.404589653E0
1.886661718E1,5.368896008E0,-3.948755503E0,7.361518860E0
1.887655520E1,5.507679462E0,-4.797011375E0,7.342376232E0
1.888649328E1,5.421537876E0,-5.405386448E0,7.318448067E0
1.889642723E1,5.114658356E0,-5.510670662E0,7.442874908E0
1.890636531E1,4.837090969E0,-4.974080086E0,7.366304398E0
1.891630338E1,4.587639332E0,-3.982254982E0,7.174878597E0
1.892626911E1,4.511068821E0,-3.244667530E0,7.213163853E0
1.893620718E1,4.635495663E0,-2.990430117E0,7.390232563E0
1.894614520E1,4.918447018E0,-3.014358282E0,7.423732281E0
1.895608739E1,5.100301266E0,-3.393022537E0,7.485945702E0
1.896602541E1,5.258227825E0,-4.192823410E0,7.471588612E0
1.897596348E1,5.349154949E0,-5.213362217E0,7.520043373E0
1.898589770E1,5.253442287E0,-5.816951752E0,7.759325504E0
1.899583572E1,5.052444935E0,-5.659025669E0,7.811967850E0
1.900577380E1,4.702494621E0,-4.777868748E0,7.744968891E0
1.901568749E1,4.477569580E0,-3.776472330E0,7.701898098E0
1.902562557E1,4.405784607E0,-3.028715372E0,7.630113125E0
1.903556364E1,4.530211449E0,-2.587837696E0,7.630113125E0
1.904551452E1,4.793421745E0,-2.708076954E0,7.606184959E0
1.905545260E1,5.066802025E0,-3.249453068E0,7.596613884E0
1.906539062E1,5.229514122E0,-4.010969162E0,7.582256794E0
1.907534562E1,5.200799942E0,-4.825725079E0,7.587042332E0
1.908528364E1,4.995017052E0,-5.395814896E0,7.835896015E0
1.909522171E1,4.688137531E0,-5.405386448E0,7.931608677E0
1.910512421E1,4.458426952E0,-4.652843475E0,7.859824181E0
1.911506228E1,4.415356159E0,-3.541377544E0,7.950751305E0
1.912500036E1,4.530211449E0,-2.789433002E0,7.926823139E0
1.913495801E1,4.750350952E0,-2.617149830E0,7.744968891E0
1.914489604E1,5.052444935E0,-2.870789051E0,7.721040249E0
1.915483411E1,5.229514122E0,-3.450450182E0,7.773682594E0
1.916476312E1,5.282155991E0,-4.168895245E0,7.835896015E0
1.917470119E1,5.191228867E0,-4.773082733E0,7.864609718E0
1.918463926E1,4.971088886E0,-5.189434052E0,8.008178711E0
1.919461078E1,4.807778835E0,-5.295316696E0,8.027321815E0
1.920454880E1,4.683351994E0,-4.868795872E0,8.012965202E0
1.921448687E1,4.563711166E0,-4.111467361E0,7.811967850E0
1.922441937E1,4.659423828E0,-3.416950703E0,7.620542049E0
1.923435739E1,4.759922504E0,-3.095714331E0,7.601399422E0
1.924429546E1,4.880161762E0,-3.230310678E0,7.630113125E0
1.925422150E1,5.004588604E0,-3.723830223E0,7.697112083E0
1.926415952E1,4.928018093E0,-4.341776848E0,7.654041290E0
1.927409760E1,4.779065132E0,-4.797011375E0,7.673183918E0
1.928403531E1,4.645066738E0,-4.878366947E0,7.888537884E0
1.929397338E1,4.625924587E0,-4.494917393E0,8.114061356E0
1.930391150E1,4.788636208E0,-3.953541279E0,8.142775536E0
1.931385718E1,4.975874901E0,-3.483949661E0,8.080561638E0
1.932379525E1,5.138586521E0,-3.273381472E0,7.984251022E0
1.933373338E1,5.239085197E0,-3.378665686E0,7.864609718E0
1.934366275E1,5.157729149E0,-3.757329702E0,7.922037601E0
1.935360083E1,4.947160721E0,-4.106681824E0,7.931608677E0
1.936353895E1,4.807778835E0,-4.327419758E0,7.807182312E0
1.937347051E1,4.937589645E0,-4.542773724E0,7.744968891E0
1.938340864E1,5.090730190E0,-4.628915310E0,7.797610760E0
1.939334671E1,5.162514687E0,-4.432703972E0,7.902894974E0
1.940329478E1,5.085944653E0,-4.044468403E0,7.874181271E0
1.941323286E1,4.975874901E0,-3.651447296E0,7.816753387E0
1.942317104E1,4.827519894E0,-3.402593851E0,7.716254711E0
1.943308275E1,4.683351994E0,-3.359523058E0,7.754539967E0
1.944302088E1,4.544568539E0,-3.579662561E0,7.893323898E0
1.945295900E1,4.597210407E0,-3.920041800E0,7.893323898E0
1.946291244E1,4.807778835E0,-4.192823410E0,7.792825222E0
1.947285051E1,4.899304390E0,-4.255635262E0,7.725826263E0
1.948278864E1,4.894518852E0,-4.188037872E0,7.697112083E0
1.949271828E1,4.822733879E0,-3.958326817E0,7.591827869E0
1.950265640E1,4.745565414E0,-3.608376503E0,7.601399422E0
1.951259452E1,4.712066174E0,-3.383451223E0,7.630113125E0
1.952252609E1,4.735994339E0,-3.373879910E0,7.529614449E0
1.953246416E1,4.740779877E0,-3.695116282E0,7.490731239E0
1.954240228E1,4.740779877E0,-4.130609989E0,7.639684677E0
1.955237515E1,4.779065132E0,-4.351347923E0,7.697112083E0
1.956231322E1,4.774279594E0,-4.322634220E0,7.687541008E0
1.957225135E1,4.697709084E0,-4.082753658E0,7.649255753E0
1.958216458E1,4.578067780E0,-3.776472330E0,7.654041290E0
1.959210270E1,4.592424870E0,-3.474378586E0,7.606184959E0
1.960204083E1,4.755136967E0,-3.369094372E0,7.539186001E0
1.961199900E1,4.956732273E0,-3.574877024E0,7.476374149E0
1.962193713E1,5.062016487E0,-3.987040758E0,7.342376232E0
1.963187520E1,5.028516769E0,-4.289134502E0,7.222734928E0
1.964178692E1,4.880161762E0,-4.289134502E0,7.213163853E0
1.965172505E1,4.621138573E0,-4.001397610E0,7.246663570E0
1.966166317E1,4.362713814E0,-3.622733593E0,7.160521984E0
1.967164104E1,4.127619267E0,-3.326023579E0,7.107879639E0
1.968157911E1,3.921836376E0,-3.192025423E0,6.988238335E0
1.969151728E1,3.792623997E0,-3.230310678E0,6.887141705E0
1.970142171E1,3.902693748E0,-3.345165968E0,6.757929325E0
1.971135979E1,4.170690060E0,-3.550948858E0,6.580860615E0
1.972129791E1,4.467998028E0,-3.752544165E0,6.480361938E0
1.973125093E1,4.592424870E0,-3.891327858E0,6.331408501E0
1.974118906E1,4.429712772E0,-3.853042603E0,6.326622963E0
1.975112713E1,4.161118507E0,-3.675375462E0,6.431907177E0
1.976107578E1,3.921836376E0,-3.455235958E0,6.442076683E0
1.977101385E1,3.783052683E0,-3.326023579E0,6.403193474E0
1.978095197E1,3.667598963E0,-3.349951744E0,6.427121639E0
1.979085286E1,3.567100286E0,-3.393022537E0,6.431907177E0
1.980079088E1,3.543172121E0,-3.431307554E0,6.403193474E0
1.981072890E1,3.605385542E0,-3.479164124E0,6.431907177E0
1.982068984E1,3.739383698E0,-3.579662561E0,6.407979012E0
1.983062781E1,3.921836376E0,-3.809971809E0,6.312266350E0
1.984056588E1,4.189832687E0,-3.967898130E0,6.364908218E0
1.985048275E1,4.334000111E0,-3.848257065E0,6.442076683E0
1.986042078E1,4.439284325E0,-3.574877024E0,6.585646152E0
1.987035880E1,4.611567497E0,-3.345165968E0,6.695715904E0
1.988033031E1,4.822733879E0,-3.215953588E0,6.815357208E0
1.989026828E1,4.932804108E0,-3.225524902E0,6.901498795E0
1.990020635E1,4.961517811E0,-3.268595695E0,6.925426960E0
1.991014359E1,4.975874901E0,-3.440878868E0,7.060023308E0
1.992008156E1,4.947160721E0,-3.512663603E0,7.485945702E0
1.993001958E1,4.692923546E0,-3.215953588E0,7.634898663E0
1.993995312E1,4.348356724E0,-2.712862730E0,7.610970497E0
1.994989109E1,4.046263218E0,-2.410768747E0,7.563114166E0
1.995982911E1,4.003192425E0,-2.401197433E0,7.380661488E0
1.996974484E1,4.338785648E0,-2.587837696E0,7.313662529E0
1.997968286E1,4.923232555E0,-3.009572744E0,7.237092018E0
1.998962088E1,5.526822090E0,-3.440878868E0,7.423732281E0
1.999959744E1,5.660820007E0,-3.661018610E0,7.591827869E0
2.000953546E1,5.282155991E0,-3.579662561E0,7.730611801E0
2.001947348E1,4.817948341E0,-3.373879910E0,8.066205025E0
2.002936650E1,4.367499352E0,-3.163311481E0,8.449056625E0
2.003930453E1,4.377070904E0,-2.909074068E0,8.367700577E0
2.004924255E1,5.129015446E0,-2.755933523E0,8.133204460E0
2.005920041E1,5.958128452E0,-2.937788010E0,8.090133667E0
2.006913838E1,6.499504566E0,-3.129213810E0,8.248059273E0
2.007907640E1,6.614359856E0,-3.273381472E0,8.516056061E0
2.008902848E1,6.250052929E0,-3.498306751E0,8.607581139E0
2.009896645E1,5.756533146E0,-3.617947817E0,8.712865829E0
2.010890452E1,5.325226784E0,-3.632304668E0,8.885149002E0
2.011881833E1,5.028516769E0,-3.579662561E0,8.918647766E0
2.012875635E1,5.157729149E0,-3.546163082E0,8.899505615E0
2.013869442E1,5.627320766E0,-3.685544968E0,8.593224525E0
2.014866328E1,6.063412666E0,-3.675375462E0,8.429914474E0
2.015860130E1,6.388836384E0,-3.426522017E0,8.415556908E0
2.016853932E1,6.552146435E0,-3.163311481E0,8.362915039E0
2.017844978E1,6.671787739E0,-3.076571703E0,8.401200294E0
2.018838775E1,6.576074600E0,-3.129213810E0,8.382058144E0
2.019832578E1,6.360122681E0,-3.416950703E0,8.367700577E0
2.020827567E1,6.442076683E0,-3.790829182E0,8.477770805E0
2.021821369E1,6.734001160E0,-4.164109707E0,8.549555779E0
2.022815166E1,6.993024349E0,-4.360919476E0,8.367700577E0
2.023806447E1,7.103094101E0,-4.202394962E0,8.238488197E0
2.024800255E1,6.848856449E0,-3.776472330E0,8.190631866E0
2.025794051E1,6.278766632E0,-3.153740168E0,8.066205025E0
2.026789520E1,5.785246849E0,-2.684148788E0,8.300702095E0
2.027783317E1,5.502893925E0,-2.506481647E0,8.506484032E0
2.028777119E1,5.296513081E0,-2.587837696E0,8.181060791E0
2.029771312E1,5.124229908E0,-2.942573547E0,7.778468132E0
2.030765119E1,4.985445976E0,-3.373879910E0,7.649255753E0
2.031758926E1,4.851448059E0,-3.517449379E0,7.783253670E0
2.032753619E1,4.668995380E0,-3.302095175E0,8.056633949E0
2.033747432E1,4.544568539E0,-2.942573547E0,7.907680511E0
2.034741239E1,4.812564373E0,-2.703291416E0,7.816753387E0
2.035735775E1,5.310869694E0,-2.708076954E0,7.993822098E0
2.036729583E1,5.818746567E0,-2.822932482E0,7.993822098E0
2.037723395E1,6.116054535E0,-3.033500910E0,7.855038643E0
2.038713322E1,5.996413708E0,-3.388236761E0,7.941180229E0
2.039707135E1,5.315655708E0,-3.608376503E0,7.878966808E0
2.040700942E1,4.692923546E0,-3.627519131E0,7.768897057E0
2.041696801E1,4.453640938E0,-3.555734396E0,7.826324463E0
2.042690609E1,4.621138573E0,-3.340380430E0,7.730611801E0
2.043684416E1,5.234299660E0,-3.004786968E0,7.711469173E0
2.044676390E1,6.005984783E0,-2.799004316E0,7.945965767E0
2.045670203E1,6.442076683E0,-2.674577475E0,8.123632431E0
2.046664015E1,6.662216663E0,-2.568695068E0,8.008178711E0
2.047658921E1,6.796214581E0,-2.684148788E0,7.974679470E0
2.048652728E1,6.633502483E0,-2.990430117E0,8.022536278E0
2.049646541E1,6.288337708E0,-3.321237803E0,8.022536278E0
2.050639223E1,5.953342915E0,-3.541377544E0,8.075776100E0
2.051633036E1,5.723033428E0,-3.464807272E0,8.109275818E0
2.052626843E1,5.732604980E0,-3.100499868E0,7.840681553E0
2.053622926E1,5.943771362E0,-2.799004316E0,7.878966808E0
2.054616734E1,5.924628735E0,-2.617149830E0,7.840681553E0
2.055610541E1,5.708676815E0,-2.636292458E0,7.677969456E0
2.056605223E1,5.665606022E0,-2.995215654E0,7.802396297E0
2.057599031E1,5.684748173E0,-3.354737282E0,7.974679470E0
2.058592843E1,5.790032387E0,-3.460021496E0,7.945965767E0
2.059583734E1,5.866602898E0,-3.297309637E0,7.773682594E0
2.060577546E1,5.818746567E0,-2.956930637E0,7.485945702E0
2.061571359E1,5.689534187E0,-2.621935368E0,7.433303356E0
2.062566114E1,5.536393166E0,-2.334198475E0,7.462017536E0
2.063559926E1,5.478965759E0,-2.224128723E0,7.711469173E0
2.064553734E1,5.555535793E0,-2.482553482E0,7.950751305E0
2.065548630E1,5.809175014E0,-3.062214851E0,8.080561638E0
2.066542437E1,6.178267956E0,-3.517449379E0,8.233702660E0
2.067536244E1,6.422336102E0,-3.622733593E0,8.415556908E0
2.068530572E1,6.547360897E0,-3.584448338E0,8.501698494E0
2.069524380E1,6.652645111E0,-3.464807272E0,8.588438988E0
2.070518192E1,6.724429607E0,-3.235096216E0,8.621937752E0
2.071512770E1,6.848856449E0,-2.980858803E0,8.736793518E0
2.072506578E1,6.959524632E0,-2.684148788E0,8.808578491E0
2.073500390E1,6.896713257E0,-2.362912416E0,8.559126854E0
2.074490926E1,6.681358814E0,-2.310270309E0,8.281558990E0
2.075484739E1,6.364908218E0,-2.621935368E0,7.950751305E0
2.076478546E1,6.096911907E0,-3.067000389E0,7.778468132E0
2.077476296E1,5.982056618E0,-3.359523058E0,7.773682594E0
2.078470104E1,5.641677380E0,-3.440878868E0,7.826324463E0
2.079463911E1,5.248656273E0,-3.416950703E0,8.080561638E0
2.080457484E1,5.148158073E0,-3.416950703E0,8.367700577E0
2.081451301E1,5.344369411E0,-3.297309637E0,8.501698494E0
2.082445119E1,5.809175014E0,-3.090928555E0,8.472985268E0
2.083438478E1,6.235695839E0,-3.076571703E0,8.300702095E0
2.084432296E1,6.513861656E0,-3.114856958E0,8.042277336E0
2.085426109E1,6.657430649E0,-3.206382275E0,7.735397339E0
2.086420796E1,6.571289062E0,-3.282952785E0,7.601399422E0
2.087414614E1,6.345765591E0,-3.426522017E0,7.447660446E0
