"Time (s)","Gyroscope x (rad/s)","Gyroscope y (rad/s)","Gyroscope z (rad/s)"
7.356339900E-2,7.323476952E-3,6.764229387E-2,6.737598777E-2
8.340454500E-2,1.584534161E-2,6.977276504E-2,6.631075591E-2
9.339459700E-2,3.715000302E-2,6.018566713E-2,4.500609636E-2
1.033847010E-1,6.804175675E-2,5.805519968E-2,1.624480449E-2
1.132408990E-1,9.147688746E-2,5.805519968E-2,-5.059856921E-3
1.232310030E-1,1.010639817E-1,5.698996782E-2,-1.464695390E-2
1.332210560E-1,9.041165560E-2,4.846810177E-2,-1.571218669E-2
1.430480350E-1,6.910699606E-2,2.822867595E-2,-1.145125460E-2
1.530380870E-1,4.993279651E-2,9.054481052E-3,2.396774245E-3
1.630281910E-1,3.288906813E-2,-1.651111245E-2,1.624480449E-2
1.728701180E-1,2.010627277E-2,-3.781577200E-2,3.115806542E-2
1.828602220E-1,2.330197208E-2,-4.527240247E-2,5.033225939E-2
1.928502740E-1,3.608476743E-2,-3.781577200E-2,6.950645149E-2
2.026669930E-1,4.354140162E-2,-2.183727734E-2,7.376738638E-2
2.126570450E-1,3.715000302E-2,-1.118494663E-2,6.098458916E-2
2.226471490E-1,2.436720580E-2,-2.503297664E-2,3.754946589E-2
2.324725140E-1,8.388710208E-3,-3.568530455E-2,9.853405878E-3
2.424625660E-1,-7.589785382E-3,-4.846810177E-2,-1.145125460E-2
2.524526700E-1,-1.078548469E-2,-6.018566713E-2,-1.571218669E-2
2.623025140E-1,-5.459319334E-3,-5.912043154E-2,1.331541222E-3
2.722926180E-1,7.323476952E-3,-3.781577200E-2,2.476666868E-2
2.822826700E-1,1.691057347E-2,-1.651111245E-2,4.181039706E-2
2.921282950E-1,1.478010789E-2,-7.989247330E-3,5.672365800E-2
3.021183990E-1,7.323476952E-3,-2.663082443E-3,5.885412544E-2
3.121084510E-1,-1.331541280E-4,-4.793548491E-3,4.500609636E-2
3.219134510E-1,1.997311832E-3,-1.864157803E-2,1.624480449E-2
3.319035030E-1,1.371487509E-2,-3.675054014E-2,-1.997311972E-2
3.418936080E-1,2.223674022E-2,-5.379426852E-2,-5.725627393E-2
3.517331390E-1,2.117150649E-2,-5.805519968E-2,-7.430000603E-2
3.617231910E-1,5.193010904E-3,-6.018566713E-2,-6.045197323E-2
3.717132950E-1,-1.824211515E-2,-4.314193875E-2,-2.423405088E-2
3.815514200E-1,-4.167724028E-2,-6.924014539E-3,1.731003635E-2
3.915414720E-1,-5.872096866E-2,1.118494663E-2,4.074516147E-2
4.015315760E-1,-6.404713541E-2,-1.597849536E-3,3.967992961E-2
4.113557430E-1,-5.446003750E-2,-2.716344222E-2,1.731003635E-2
4.213458470E-1,-2.782921307E-2,-4.527240247E-2,-1.677742042E-2
4.313358990E-1,1.584534161E-2,-4.207670316E-2,-5.832150951E-2
4.411752740E-1,4.993279651E-2,-3.142437339E-2,-9.347419441E-2
4.511653260E-1,5.738943070E-2,-3.142437339E-2,-1.019960642E-1
4.611554310E-1,4.993279651E-2,-3.248960897E-2,-8.814803511E-2
4.710136600E-1,2.862813696E-2,-1.118494663E-2,-6.045197323E-2
4.810037640E-1,7.323476952E-3,1.118494663E-2,-3.275591508E-2
4.909938160E-1,-3.328853287E-3,2.822867595E-2,-1.677742042E-2
5.007968890E-1,1.051917579E-2,3.675054014E-2,-1.890788600E-2
5.107869410E-1,3.715000302E-2,3.781577200E-2,-4.234301299E-2
5.207770450E-1,7.017222792E-2,2.822867595E-2,-7.003907114E-2
5.306373580E-1,1.042596847E-1,1.438064594E-2,-9.027849883E-2
5.406174100E-1,1.106510833E-1,7.989247330E-3,-9.240896255E-2
5.505973580E-1,9.147688746E-2,1.651111245E-2,-7.962616533E-2
5.604305870E-1,7.230269164E-2,3.568530455E-2,-6.151720881E-2
5.704105870E-1,6.058513001E-2,5.698996782E-2,-5.086487532E-2
5.803905870E-1,6.591129303E-2,5.698996782E-2,-5.086487532E-2
5.902698060E-1,9.680305421E-2,4.101147130E-2,-6.364767253E-2
6.002497530E-1,1.415428370E-1,3.248960897E-2,-8.495233208E-2
6.102297530E-1,1.798912287E-1,2.077204362E-2,-1.126483902E-1
6.200510030E-1,1.905435622E-1,3.728315700E-3,-1.382139921E-1
6.300309510E-1,1.681736708E-1,-2.290250920E-2,-1.584534049E-1
6.400109510E-1,1.287600398E-1,-5.059856921E-2,-1.659100503E-1
6.498935560E-1,9.573781490E-2,-6.018566713E-2,-1.659100503E-1
6.598736080E-1,8.402025700E-2,-5.379426852E-2,-1.488663107E-1
6.698535560E-1,9.147688746E-2,-5.379426852E-2,-1.094526947E-1
6.797088680E-1,1.202381775E-1,-5.059856921E-2,-5.938674137E-2
6.896888680E-1,1.458037645E-1,-3.035914153E-2,-4.127778113E-2
6.996688680E-1,1.447385401E-1,-4.420717061E-2,-6.258244067E-2
7.094991280E-1,1.255643368E-1,-1.027949899E-1,-1.222354919E-1
7.194791280E-1,1.053249165E-1,-1.635132730E-1,-1.957365721E-1
7.294591280E-1,1.074553803E-1,-1.997311860E-1,-2.447372824E-1
7.393374100E-1,1.500647068E-1,-1.773612946E-1,-2.436720580E-1
7.493174100E-1,2.011958808E-1,-1.006645188E-1,-1.946713328E-1
7.592974100E-1,2.214353085E-1,-3.675054014E-2,-1.254311949E-1
7.691160030E-1,2.267614752E-1,-1.597849536E-3,-6.045197323E-2
7.790960030E-1,2.150439173E-1,7.989247330E-3,-3.808208182E-2
7.890759510E-1,1.905435622E-1,-1.331541315E-2,-6.151720881E-2
7.989705350E-1,1.713693589E-1,-4.420717061E-2,-1.137136221E-1
8.089505870E-1,1.628475040E-1,-6.551183015E-2,-1.680405140E-1
8.189305350E-1,1.649779677E-1,-9.746882319E-2,-1.946713328E-1
8.287872010E-1,1.788259894E-1,-1.358172148E-1,-1.861494780E-1
8.387672010E-1,1.873478591E-1,-1.560566425E-1,-1.627143472E-1
8.487472010E-1,1.830869317E-1,-1.560566425E-1,-1.371487528E-1
8.586034510E-1,1.745650619E-1,-1.464695334E-1,-1.179745570E-1
8.685834510E-1,1.660431921E-1,-1.379476786E-1,-1.105179265E-1
8.785634510E-1,1.543256342E-1,-1.613828093E-1,-1.158440933E-1
8.883899620E-1,1.564560980E-1,-1.922745556E-1,-1.296921223E-1
8.983699620E-1,1.681736708E-1,-2.029268891E-1,-1.360835135E-1
9.083499100E-1,1.766955256E-1,-2.018616647E-1,-1.456706226E-1
9.182226700E-1,1.990654171E-1,-1.922745556E-1,-1.627143472E-1
9.282026180E-1,2.107829899E-1,-1.635132730E-1,-1.669752747E-1
9.381826180E-1,2.065220475E-1,-1.091863886E-1,-1.499315500E-1
9.480039200E-1,1.958697289E-1,-2.929390781E-2,-1.179745570E-1
9.579839200E-1,1.681736708E-1,2.822867595E-2,-9.347419441E-2
9.679638680E-1,1.426080763E-1,5.912043154E-2,-8.814803511E-2
9.778257950E-1,1.191729456E-1,4.953333735E-2,-1.105179265E-1
9.878057950E-1,9.680305421E-2,-2.290250920E-2,-1.520620137E-1
9.977857430E-1,9.786828607E-2,-8.788172156E-2,-1.893451661E-1
1.007642149E0,9.254211932E-2,-1.038602218E-1,-1.978670359E-1
1.017622149E0,8.721595258E-2,-7.829462737E-2,-1.637795717E-1
1.027602097E0,1.063901484E-1,-9.054481052E-3,-1.051917598E-1
1.037449806E0,1.351514459E-1,8.149032295E-2,-2.636451647E-2
1.047421264E0,1.585865617E-1,1.528609395E-1,1.624480449E-2
1.057392774E0,1.404775977E-1,1.496652365E-1,-5.059856921E-3
1.067295899E0,1.244991124E-1,1.006645188E-1,-6.258244067E-2
1.077267358E0,1.287600398E-1,4.527240247E-2,-1.254311949E-1
1.087238868E0,1.308905035E-1,-1.544587873E-2,-1.723014414E-1
1.097076108E0,1.287600398E-1,-2.716344222E-2,-1.712362021E-1
1.107047566E0,1.223686412E-1,2.396774292E-2,-1.286268830E-1
1.117019076E0,9.360735118E-2,6.551183015E-2,-6.258244067E-2
1.126922097E0,7.336792350E-2,1.294258088E-1,-7.190322969E-3
1.136893556E0,6.697652489E-2,1.731003672E-1,1.198387146E-2
1.146865066E0,6.910699606E-2,1.454043090E-1,-7.190322969E-3
1.156704493E0,9.999874979E-2,1.049254537E-1,-5.619104207E-2
1.166675951E0,1.330209672E-1,4.633763805E-2,-1.201050207E-1
1.176647462E0,1.511299312E-1,-2.929390781E-2,-1.904104054E-1
1.186519806E0,1.681736708E-1,-3.994623944E-2,-2.287587970E-1
1.196491264E0,1.820216924E-1,-2.290250920E-2,-2.074541301E-1
1.206462774E0,1.692388952E-1,-3.568530455E-2,-1.499315500E-1
1.216368503E0,1.362166703E-1,-4.420717061E-2,-6.790860742E-2
1.226339962E0,1.287600398E-1,-3.462007269E-2,2.476666868E-2
1.236311472E0,1.255643368E-1,4.740286991E-2,7.057169080E-2
1.246147514E0,8.721595258E-2,9.533835202E-2,4.713656008E-2
1.256118972E0,4.567186534E-2,5.592473224E-2,3.462007269E-3
1.266090483E0,4.141093418E-2,-2.663082443E-3,-3.275591508E-2
1.275956108E0,4.567186534E-2,-5.272903293E-2,-6.897383928E-2
1.285927566E0,5.099803209E-2,-8.468602598E-2,-1.062569916E-1
1.295899076E0,7.549838722E-2,-8.681648970E-2,-1.275616586E-1
1.305779597E0,8.828118443E-2,-6.657706201E-2,-1.243659556E-1
1.315751056E0,1.074553803E-1,-1.049254537E-1,-8.814803511E-2
1.325722566E0,1.308905035E-1,-1.720351279E-1,-3.169068322E-2
1.335605222E0,1.085206121E-1,-1.304910481E-1,-1.038602181E-2
1.345576681E0,7.017222792E-2,-1.411433816E-1,2.263620123E-2
1.355548191E0,3.501953557E-2,-1.613828093E-1,4.607132822E-2
1.365416056E0,2.330197208E-2,-1.667089611E-1,5.033225939E-2
1.375387514E0,1.584534161E-2,-1.517957002E-1,2.902759984E-2
1.385359024E0,2.330197208E-2,-1.454043090E-1,-1.890788600E-2
1.395227253E0,5.206326395E-2,-1.315562725E-1,-7.643046975E-2
1.405198712E0,8.615072072E-2,-8.788172156E-2,-1.233007237E-1
1.415170222E0,1.234338731E-1,-6.231613085E-2,-1.382139921E-1
1.425044285E0,1.255643368E-1,-8.894696087E-2,-1.094526947E-1
1.435015743E0,1.127815470E-1,-1.358172148E-1,-3.595161438E-2
1.444987253E0,1.031944528E-1,-1.113168523E-1,4.287562892E-2
1.454861628E0,7.549838722E-2,-4.101147130E-2,1.014634445E-1
1.464833087E0,3.928046674E-2,-1.118494663E-2,1.121157780E-1
1.474804597E0,1.904104091E-2,-1.225017942E-2,8.335448056E-2
1.484664910E0,1.478010789E-2,-1.864157803E-2,3.648423031E-2
1.494636368E0,1.584534161E-2,-6.764229387E-2,-7.190322969E-3
1.504607878E0,3.821523488E-2,-1.443390697E-1,-4.766917601E-2
1.514489701E0,8.082455397E-2,-1.667089611E-1,-8.282186836E-2
1.524461160E0,1.319557428E-1,-1.166430190E-1,-1.083874628E-1
1.534432670E0,1.830869317E-1,-6.444659829E-2,-1.158440933E-1
1.544303035E0,2.054568231E-1,-5.858781748E-3,-9.986559302E-2
1.554267878E0,1.713693589E-1,5.592473224E-2,-6.577813625E-2
1.564232722E0,1.330209672E-1,8.894696087E-2,-2.103835158E-2
1.574127983E0,1.106510833E-1,1.027949899E-1,1.624480449E-2
1.584092826E0,8.402025700E-2,1.017297506E-1,2.263620123E-2
1.594057670E0,5.099803209E-2,6.977276504E-2,1.331541222E-3
1.603938712E0,2.649767138E-2,2.077204362E-2,-2.210358530E-2
1.613903556E0,2.862813696E-2,-2.663082443E-3,-3.914731368E-2
1.623868399E0,3.928046674E-2,-5.326165119E-4,-4.553871229E-2
1.633753295E0,4.673709720E-2,-1.597849536E-3,-3.701684624E-2
1.643718139E0,5.738943070E-2,-2.716344222E-2,-1.571218669E-2
1.653682983E0,4.886756465E-2,-3.781577200E-2,-2.929390874E-3
1.663542462E0,1.371487509E-2,-2.503297664E-2,-6.125089712E-3
1.673507306E0,-7.589785382E-3,4.793548491E-3,1.331541222E-3
1.683472201E0,-1.198387123E-3,5.485950038E-2,6.657706574E-3
1.693380691E0,1.158440951E-2,6.444659829E-2,1.091863867E-2
1.703345535E0,3.075860441E-2,4.207670316E-2,1.304910425E-2
1.713310378E0,4.780233279E-2,1.864157803E-2,3.462007269E-3
1.723170639E0,4.247616604E-2,-2.396774292E-2,-2.210358530E-2
1.733135431E0,1.691057347E-2,-4.314193875E-2,-5.086487532E-2
1.743100326E0,4.127778113E-3,-4.314193875E-2,-7.323476672E-2
1.752987566E0,-7.589785382E-3,-6.018566713E-2,-7.216953486E-2
1.762952410E0,-1.291595027E-2,-8.149032295E-2,-4.340824485E-2
1.772917253E0,-3.328853287E-3,-8.042509109E-2,9.853405878E-3
1.782809493E0,1.264964230E-2,-6.657706201E-2,6.098458916E-2
1.792774285E0,2.969337068E-2,-4.101147130E-2,7.696308941E-2
1.802739128E0,4.247616604E-2,-2.663082443E-3,5.565842614E-2
1.812638035E0,4.993279651E-2,3.035914153E-2,1.304910425E-2
1.822602878E0,3.395430371E-2,5.485950038E-2,-2.956021577E-2
1.832567722E0,9.453942999E-3,8.894696087E-2,-3.808208182E-2
1.842452253E0,-1.291595027E-2,1.251648813E-1,-2.929390874E-3
1.852417097E0,-3.954677656E-2,1.368824393E-1,5.459319428E-2
1.862381941E0,-5.978620425E-2,1.283605844E-1,1.153114736E-1
1.872277253E0,-7.789516449E-2,1.155777797E-1,1.483336985E-1
1.882242097E0,-8.428656310E-2,1.240996495E-1,1.398118287E-1
1.892206941E0,-7.682993263E-2,1.358172148E-1,9.507204592E-2
1.902073816E0,-6.511236727E-2,1.645784974E-1,2.902759984E-2
1.912038608E0,-6.830807030E-2,2.039921284E-1,-2.636451647E-2
1.922003451E0,-6.830807030E-2,2.221010923E-1,-4.447348043E-2
1.931895691E0,-6.511236727E-2,2.093182951E-1,-1.145125460E-2
1.941860535E0,-7.256899774E-2,1.677742004E-1,5.885412544E-2
1.951825378E0,-9.067796171E-2,1.326215118E-1,1.312899739E-1
1.961699285E0,-1.055912226E-1,1.326215118E-1,1.877473146E-1
1.971664128E0,-1.119826213E-1,1.454043090E-1,2.101172209E-1
1.981628972E0,-1.173087880E-1,1.560566425E-1,1.941387206E-1
1.991516993E0,-1.215697154E-1,1.613828093E-1,1.515294015E-1
2.001481837E0,-1.300915778E-1,1.411433816E-1,9.613727778E-2
2.011446681E0,-1.279611140E-1,1.134473160E-1,4.926702753E-2
2.021335691E0,-1.130478531E-1,1.209039465E-1,3.435376659E-2
2.031300483E0,-1.087869257E-1,1.187734827E-1,4.607132822E-2
2.041265326E0,-1.130478531E-1,1.049254537E-1,8.122401685E-2
2.051158087E0,-1.087869257E-1,1.059906855E-1,1.163767055E-1
2.061117618E0,-1.002650559E-1,1.091863886E-1,1.472684592E-1
2.071077201E0,-9.919982404E-2,9.427312016E-2,1.472684592E-1
2.080933399E0,-8.322133124E-2,1.155777797E-1,1.153114736E-1
2.090892983E0,-7.150376588E-2,1.581871063E-1,8.015878499E-2
2.100852514E0,-8.961272985E-2,1.571218669E-1,6.098458916E-2
2.110785951E0,-1.055912226E-1,1.454043090E-1,7.057169080E-2
2.120745535E0,-1.119826213E-1,1.464695334E-1,9.507204592E-2
2.130705066E0,-1.300915778E-1,1.198387146E-1,1.227681041E-1
2.140584597E0,-1.524614692E-1,7.829462737E-2,1.387466043E-1
2.150544181E0,-1.567224115E-1,6.231613085E-2,1.398118287E-1
2.160503712E0,-1.503310055E-1,5.912043154E-2,1.270290315E-1
2.170391628E0,-1.535267085E-1,3.994623944E-2,1.046591476E-1
2.180351212E0,-1.513962448E-1,5.166380107E-2,9.294158220E-2
2.190310743E0,-1.492657810E-1,8.681648970E-2,9.933298081E-2
2.200194545E0,-1.673747450E-1,1.059906855E-1,1.195724085E-1
2.210154128E0,-1.886793971E-1,9.320788831E-2,1.387466043E-1
2.220113660E0,-1.993317306E-1,5.485950038E-2,1.547250897E-1
2.230019493E0,-2.089188248E-1,-3.728315700E-3,1.547250897E-1
2.239979076E0,-2.089188248E-1,-5.166380107E-2,1.376813650E-1
2.249938608E0,-1.908098608E-1,-6.125089899E-2,1.238333359E-1
2.259841941E0,-1.695052087E-1,-3.781577200E-2,1.259638071E-1
2.269801524E0,-1.535267085E-1,-7.989247330E-3,1.398118287E-1
2.279761056E0,-1.577876359E-1,4.793548491E-3,1.600512564E-1
2.289667983E0,-1.929403245E-1,-2.663082443E-3,1.653774232E-1
2.299627566E0,-2.302234918E-1,-1.438064594E-2,1.589860320E-1
2.309587097E0,-2.525933683E-1,-2.290250920E-2,1.536598653E-1
2.319486056E0,-2.536586225E-1,-3.994623944E-2,1.568555683E-1
2.329445639E0,-2.398105860E-1,-7.083799690E-2,1.621817350E-1
2.339405170E0,-2.174406946E-1,-7.829462737E-2,1.664426625E-1
2.349271993E0,-1.886793971E-1,-4.633763805E-2,1.653774232E-1
2.359231576E0,-1.801575422E-1,-1.970681176E-2,1.451379955E-1
2.369191108E0,-1.961360276E-1,-1.864157803E-2,1.206376404E-1
2.379103399E0,-2.089188248E-1,-1.225017942E-2,1.035939083E-1
2.389062983E0,-2.067883611E-1,3.728315700E-3,9.933298081E-2
2.399022514E0,-2.078536004E-1,-3.728315700E-3,1.121157780E-1
2.408889181E0,-2.174406946E-1,-3.462007269E-2,1.312899739E-1
2.418848764E0,-2.185059190E-1,-6.125089899E-2,1.504641622E-1
2.428808295E0,-2.110492885E-1,-5.592473224E-2,1.707035899E-1
2.438705847E0,-2.003969699E-1,-3.248960897E-2,1.760297567E-1
2.448665431E0,-2.014621943E-1,-2.077204362E-2,1.653774232E-1
2.458624962E0,-2.046578974E-1,-9.054481052E-3,1.334204376E-1
2.468536316E0,-2.014621943E-1,4.793548491E-3,1.046591476E-1
2.478495899E0,-1.961360276E-1,1.597849536E-3,8.761541545E-2
2.488455431E0,-1.833532304E-1,-1.651111245E-2,7.483261824E-2
2.498360951E0,-1.652442664E-1,-4.314193875E-2,7.376738638E-2
2.508320535E0,-1.439396143E-1,-7.722939551E-2,7.483261824E-2
2.518280066E0,-1.077216864E-1,-8.255556226E-2,6.524552405E-2
2.528182670E0,-8.322133124E-2,-6.870753318E-2,4.713656008E-2
2.538142253E0,-9.174319357E-2,-7.296846062E-2,3.009283356E-2
2.548101785E0,-1.034607589E-1,-7.083799690E-2,3.115806542E-2
2.557963920E0,-1.183740199E-1,-5.379426852E-2,5.033225939E-2
2.567919024E0,-1.375482082E-1,-3.675054014E-2,7.163692266E-2
2.577874128E0,-1.524614692E-1,-3.355484083E-2,8.761541545E-2
2.587775170E0,-1.631138027E-1,-4.527240247E-2,8.655018359E-2
2.597730274E0,-1.641790420E-1,-5.698996782E-2,6.950645149E-2
2.607685378E0,-1.386134475E-1,-5.698996782E-2,4.074516147E-2
2.617601264E0,-1.109173894E-1,-7.190322876E-2,-1.864157850E-3
2.627556420E0,-8.215609938E-2,-8.681648970E-2,-4.447348043E-2
2.637511524E0,-5.232957378E-2,-6.764229387E-2,-7.749570161E-2
2.647410222E0,-3.528584540E-2,-6.338136643E-2,-9.666989744E-2
2.657365274E0,-3.102491237E-2,-7.509893179E-2,-9.773512930E-2
2.667320431E0,-2.037258074E-2,-6.657706201E-2,-8.388710022E-2
2.677246837E0,1.997311832E-3,-5.698996782E-2,-5.193011090E-2
2.687201941E0,2.969337068E-2,-4.207670316E-2,-1.890788600E-2
2.697157045E0,4.886756465E-2,-2.929390781E-2,3.462007269E-3
2.707046420E0,4.993279651E-2,-4.420717061E-2,1.331541222E-3
2.717001576E0,3.288906813E-2,-6.338136643E-2,-1.890788600E-2
2.726956681E0,8.388710208E-3,-6.338136643E-2,-3.169068322E-2
2.736866212E0,-1.824211515E-2,-5.485950038E-2,-2.742975019E-2
2.746821368E0,-3.422060981E-2,-3.568530455E-2,2.663082560E-4
2.756776472E0,-2.569874749E-2,-1.597849536E-3,4.181039706E-2
2.766696785E0,-1.611164957E-2,2.183727734E-2,7.057169080E-2
2.776651889E0,-2.356828004E-2,2.183727734E-2,6.631075591E-2
2.786606993E0,-4.700340703E-2,1.011971384E-2,4.074516147E-2
2.796478399E0,-6.511236727E-2,-7.989247330E-3,1.304910425E-2
2.806433451E0,-6.937330216E-2,-1.011971384E-2,4.527240526E-3
2.816388556E0,-6.085143611E-2,2.183727734E-2,2.263620123E-2
2.826315847E0,-4.167724028E-2,6.764229387E-2,5.991935730E-2
2.836271003E0,-3.635107726E-2,1.102516204E-1,8.548495173E-2
2.846226108E0,-3.315537795E-2,1.336867511E-1,9.294158220E-2
2.856137618E0,-2.356828004E-2,1.145125479E-1,7.589785010E-2
2.866092722E0,-7.589785382E-3,7.403369248E-2,3.115806542E-2
2.876047826E0,2.756290510E-2,5.166380107E-2,-2.103835158E-2
2.885944128E0,6.378082931E-2,4.953333735E-2,-6.258244067E-2
2.895899233E0,8.402025700E-2,5.059856921E-2,-7.749570161E-2
2.905854337E0,7.656362653E-2,4.314193875E-2,-6.684337556E-2
2.915762045E0,5.312849581E-2,3.248960897E-2,-4.234301299E-2
2.925717149E0,2.117150649E-2,1.970681176E-2,-1.997311972E-2
2.935672253E0,-1.185071748E-2,1.597849536E-3,-6.125089712E-3
2.945548608E0,-2.782921307E-2,-1.757634431E-2,-1.864157850E-3
2.955503712E0,-1.717688330E-2,-3.568530455E-2,2.396774245E-3
2.965458816E0,9.320789250E-4,-6.231613085E-2,-7.989247679E-4
2.975384285E0,2.117150649E-2,-8.681648970E-2,-9.320789017E-3
2.985339441E0,4.567186534E-2,-8.894696087E-2,-2.423405088E-2
2.995294545E0,6.165036187E-2,-7.935985923E-2,-4.660394415E-2
3.005175795E0,5.951989442E-2,-7.403369248E-2,-7.430000603E-2
3.015130847E0,5.525896326E-2,-6.338136643E-2,-1.051917598E-1
3.025086003E0,5.206326395E-2,-5.485950038E-2,-1.243659556E-1
3.035019389E0,5.632419512E-2,-6.018566713E-2,-1.318225861E-1
3.044974493E0,7.549838722E-2,-7.083799690E-2,-1.264964193E-1
3.054929597E0,1.053249165E-1,-7.296846062E-2,-1.137136221E-1
3.064839545E0,1.340862066E-1,-6.444659829E-2,-1.083874628E-1
3.074791368E0,1.596518010E-1,-5.912043154E-2,-9.880036116E-2
3.084743191E0,1.830869317E-1,-5.379426852E-2,-8.708280325E-2
3.094632149E0,1.873478591E-1,-4.101147130E-2,-8.708280325E-2
3.104583972E0,1.745650619E-1,-3.888100386E-2,-9.880036116E-2
3.114535795E0,1.585865617E-1,-3.888100386E-2,-1.147788614E-1
3.124451003E0,1.458037645E-1,-3.994623944E-2,-1.286268830E-1
3.134402826E0,1.372819096E-1,-5.059856921E-2,-1.360835135E-1
3.144354649E0,1.340862066E-1,-7.509893179E-2,-1.328878254E-1
3.154283191E0,1.489994675E-1,-8.149032295E-2,-1.126483902E-1
3.164235014E0,1.660431921E-1,-5.912043154E-2,-8.601756394E-2
3.174186837E0,1.788259894E-1,-2.609820850E-2,-7.110430300E-2
3.184091993E0,1.820216924E-1,-4.793548491E-3,-7.430000603E-2
3.194043816E0,1.809564531E-1,-1.438064594E-2,-1.051917598E-1
3.203995639E0,1.916087866E-1,-2.396774292E-2,-1.499315500E-1
3.213888868E0,2.001306564E-1,-4.527240247E-2,-1.829537749E-1
3.223840691E0,2.054568231E-1,-5.379426852E-2,-1.818885356E-1
3.233792514E0,2.203700840E-1,5.326165119E-4,-1.488663107E-1
3.243709441E0,2.416747361E-1,8.575125784E-2,-1.019960642E-1
3.253661264E0,2.331528813E-1,1.091863886E-1,-7.003907114E-2
3.263613087E0,1.926740259E-1,7.403369248E-2,-8.175663650E-2
3.273531576E0,1.553908736E-1,4.207670316E-2,-1.296921223E-1
3.283483399E0,1.383471340E-1,3.888100386E-2,-1.701709777E-1
3.293435222E0,1.458037645E-1,2.503297664E-2,-1.723014414E-1
3.303347670E0,1.734998226E-1,3.462007269E-2,-1.339530498E-1
3.313299493E0,1.990654171E-1,9.533835202E-2,-8.282186836E-2
3.323251316E0,1.980001926E-1,1.336867511E-1,-5.299534276E-2
3.333164441E0,1.681736708E-1,9.001219273E-2,-7.430000603E-2
3.343116264E0,1.362166703E-1,7.989247330E-3,-1.350182891E-1
3.353068087E0,1.330209672E-1,-4.953333735E-2,-2.010627389E-1
3.362979545E0,1.543256342E-1,-6.977276504E-2,-2.340849638E-1
3.372931368E0,1.756303012E-1,-6.018566713E-2,-2.042584270E-1
3.382883243E0,1.958697289E-1,6.924014539E-3,-1.339530498E-1
3.392753608E0,2.065220475E-1,1.027949899E-1,-3.701684624E-2
3.402705483E0,1.862826198E-1,1.539261788E-1,2.902759984E-2
3.412657306E0,1.308905035E-1,8.575125784E-2,1.091863867E-2
3.422603503E0,8.188978583E-2,-3.142437339E-2,-7.430000603E-2
3.432555326E0,7.336792350E-2,-9.107742459E-2,-1.616491079E-1
3.442507149E0,9.786828607E-2,-1.358172148E-1,-2.191716880E-1
3.452405222E0,1.511299312E-1,-1.081211492E-1,-2.330197245E-1
3.462356993E0,1.862826198E-1,-4.740286991E-2,-2.021279633E-1
3.472308868E0,1.894783229E-1,-3.781577200E-2,-1.637795717E-1
3.482201733E0,1.681736708E-1,-3.568530455E-2,-1.328878254E-1
3.492153556E0,1.330209672E-1,-3.994623944E-2,-1.243659556E-1
3.502105378E0,1.095858440E-1,-7.509893179E-2,-1.350182891E-1
3.512045743E0,9.680305421E-2,-9.640359133E-2,-1.531272531E-1
3.521997566E0,1.021292135E-1,-1.336867511E-1,-1.648448110E-1
3.531949389E0,1.383471340E-1,-1.315562725E-1,-1.552577168E-1
3.541851524E0,1.692388952E-1,-8.468602598E-2,-1.339530498E-1
3.551803347E0,1.809564531E-1,-4.527240247E-2,-1.147788614E-1
3.561755170E0,1.766955256E-1,2.663082443E-3,-1.233007237E-1
3.571674701E0,1.596518010E-1,2.396774292E-2,-1.573881805E-1
3.581623764E0,1.426080763E-1,-1.118494663E-2,-1.904104054E-1
3.591572774E0,1.244991124E-1,-5.698996782E-2,-2.074541301E-1
3.601460378E0,1.042596847E-1,-1.006645188E-1,-1.850842386E-1
3.611409441E0,9.147688746E-2,-1.155777797E-1,-1.275616586E-1
3.621358503E0,1.053249165E-1,-1.006645188E-1,-6.684337556E-2
3.631281941E0,1.202381775E-1,-9.107742459E-2,-3.169068322E-2
3.641230951E0,1.266295761E-1,-7.722939551E-2,-4.660394415E-2
3.651180014E0,1.383471340E-1,-3.035914153E-2,-9.773512930E-2
3.661100691E0,1.426080763E-1,-1.757634431E-2,-1.552577168E-1
3.671049701E0,1.404775977E-1,-4.846810177E-2,-1.957365721E-1
3.680998764E0,1.426080763E-1,-8.468602598E-2,-1.968017966E-1
3.690903816E0,1.585865617E-1,-1.017297506E-1,-1.637795717E-1
3.700852878E0,1.734998226E-1,-8.468602598E-2,-1.062569916E-1
3.710801941E0,1.660431921E-1,-2.609820850E-2,-4.766917601E-2
3.720747722E0,1.372819096E-1,2.077204362E-2,-7.190322969E-3
3.730696733E0,1.298252791E-1,4.207670316E-2,2.157096937E-2
3.740645847E0,1.372819096E-1,3.568530455E-2,1.411433797E-2
3.750529128E0,1.095858440E-1,-7.989247330E-3,-2.742975019E-2
3.760478191E0,8.082455397E-2,-7.616416365E-2,-7.536523789E-2
3.770427253E0,9.254211932E-2,-1.262301207E-1,-1.083874628E-1
3.780371524E0,1.085206121E-1,-1.432738453E-1,-1.201050207E-1
3.790320535E0,1.266295761E-1,-1.017297506E-1,-1.041265279E-1
3.800269597E0,1.415428370E-1,-2.716344222E-2,-7.643046975E-2
3.810151733E0,1.244991124E-1,1.438064594E-2,-6.258244067E-2
3.820100795E0,1.063901484E-1,3.248960897E-2,-6.045197323E-2
3.830049858E0,8.934641629E-2,9.054481052E-3,-6.684337556E-2
3.839968972E0,7.230269164E-2,-4.420717061E-2,-8.069140464E-2
3.849918035E0,6.378082931E-2,-9.320788831E-2,-9.027849883E-2
3.859867097E0,6.910699606E-2,-1.070559174E-1,-8.175663650E-2
3.869782358E0,7.762885839E-2,-9.640359133E-2,-6.790860742E-2
3.879731420E0,6.804175675E-2,-7.935985923E-2,-7.110430300E-2
3.889680483E0,4.034570232E-2,-8.362079412E-2,-8.814803511E-2
3.899610170E0,1.264964230E-2,-8.362079412E-2,-1.083874628E-1
3.909559233E0,1.158440951E-2,-6.125089899E-2,-1.126483902E-1
3.919508295E0,1.478010789E-2,-6.870753318E-2,-1.030612960E-1
3.929420847E0,1.691057347E-2,-9.640359133E-2,-7.856093347E-2
3.939369910E0,3.928046674E-2,-8.042509109E-2,-4.447348043E-2
3.949318972E0,5.845466256E-2,-2.503297664E-2,-2.849498391E-2
3.959260743E0,6.804175675E-2,3.994623944E-2,-3.169068322E-2
3.969209753E0,7.123745978E-2,9.427312016E-2,-4.979964346E-2
3.979158816E0,6.378082931E-2,1.283605844E-1,-6.364767253E-2
3.989043920E0,5.206326395E-2,1.102516204E-1,-6.364767253E-2
3.998992983E0,5.312849581E-2,8.255556226E-2,-4.660394415E-2
4.008942045E0,5.951989442E-2,6.444659829E-2,-2.849498391E-2
4.018858087E0,5.419373140E-2,3.355484083E-2,-2.636451647E-2
4.028807149E0,5.738943070E-2,2.503297664E-2,-4.127778113E-2
4.038756212E0,6.058513001E-2,5.379426852E-2,-5.512581021E-2
4.048701160E0,3.395430371E-2,5.485950038E-2,-4.660394415E-2
4.058650222E0,6.258244161E-3,6.018566713E-2,-8.255556226E-3
4.068599233E0,-6.524552125E-3,8.468602598E-2,5.246272683E-2
4.078489128E0,-2.250304818E-2,9.214265645E-2,1.046591476E-1
4.088435847E0,-3.848154470E-2,6.338136643E-2,1.323551983E-1
4.098382618E0,-4.700340703E-2,3.994623944E-2,1.195724085E-1
4.108319858E0,-4.806863889E-2,3.142437339E-2,8.548495173E-2
4.118266576E0,-4.061200842E-2,2.716344222E-2,4.820179567E-2
4.128213347E0,-1.717688330E-2,3.035914153E-2,2.370143496E-2
4.138129285E0,-1.198387123E-3,3.781577200E-2,2.157096937E-2
4.148076003E0,-3.328853287E-3,3.035914153E-2,3.222329915E-2
4.158022774E0,-7.589785382E-3,1.225017942E-2,4.607132822E-2
4.167953816E0,-7.589785382E-3,-9.054481052E-3,5.672365800E-2
4.177900535E0,-1.291595027E-2,-2.822867595E-2,5.352795869E-2
4.187847306E0,-1.185071748E-2,-2.290250920E-2,3.115806542E-2
4.197776316E0,-5.459319334E-3,1.597849536E-3,1.517957076E-2
4.207723035E0,-1.331541280E-4,-1.597849536E-3,2.476666868E-2
4.217669806E0,1.264964230E-2,-2.663082443E-3,5.459319428E-2
4.227559233E0,7.323476952E-3,2.716344222E-2,9.400681406E-2
4.237505951E0,-2.569874749E-2,4.527240247E-2,1.238333359E-1
4.247452722E0,-6.085143611E-2,2.609820850E-2,1.302247345E-1
4.257394858E0,-9.280842543E-2,-1.970681176E-2,1.078548431E-1
4.267341576E0,-1.087869257E-1,-6.338136643E-2,6.098458916E-2
4.277288347E0,-9.067796171E-2,-7.190322876E-2,1.731003635E-2
4.287183920E0,-5.552527308E-2,-6.657706201E-2,-7.190322969E-3
4.297130639E0,-1.291595027E-2,-2.716344222E-2,-8.255556226E-3
4.307077410E0,2.543243766E-2,3.888100386E-2,2.050573565E-2
4.317029233E0,1.691057347E-2,5.485950038E-2,7.376738638E-2
4.326975951E0,-2.143781446E-2,5.912043154E-2,1.206376404E-1
4.336922722E0,-5.765573680E-2,7.509893179E-2,1.483336985E-1
4.346807931E0,-9.174319357E-2,8.042509109E-2,1.451379955E-1
4.356754649E0,-1.183740199E-1,6.231613085E-2,1.089200750E-1
4.366701420E0,-1.247654185E-1,4.314193875E-2,5.885412544E-2
4.376633347E0,-1.162435561E-1,2.183727734E-2,2.157096937E-2
4.386580066E0,-9.387365729E-2,9.054481052E-3,2.663082560E-4
4.396526837E0,-6.724283099E-2,3.781577200E-2,5.592473317E-3
4.406456316E0,-5.339480564E-2,7.083799690E-2,3.541899845E-2
4.416403035E0,-5.765573680E-2,9.214265645E-2,7.376738638E-2
4.426349806E0,-7.576470077E-2,9.853405505E-2,1.067896113E-1
4.436293243E0,-9.600412846E-2,1.038602218E-1,1.195724085E-1
4.446239962E0,-1.077216864E-1,1.070559174E-1,1.131810099E-1
4.456186733E0,-1.087869257E-1,8.575125784E-2,8.868064731E-2
4.466099076E0,-1.045259908E-1,5.592473224E-2,6.098458916E-2
4.476045795E0,-9.706936032E-2,4.314193875E-2,5.565842614E-2
4.485992566E0,-8.641702682E-2,3.142437339E-2,7.802832127E-2
4.495888608E0,-8.535179496E-2,2.822867595E-2,1.142462417E-1
4.505835326E0,-1.002650559E-1,5.912043154E-2,1.589860320E-1
4.515782097E0,-1.300915778E-1,9.107742459E-2,1.930734813E-1
4.525700274E0,-1.716356725E-1,1.091863886E-1,1.952039450E-1
4.535646993E0,-2.035926580E-1,9.427312016E-2,1.760297567E-1
4.545593764E0,-2.110492885E-1,6.977276504E-2,1.462032348E-1
4.555510587E0,-2.078536004E-1,4.527240247E-2,1.163767055E-1
4.565457306E0,-1.982664913E-1,2.822867595E-2,9.933298081E-2
4.575404076E0,-1.769618392E-1,3.568530455E-2,1.121157780E-1
4.585336628E0,-1.577876359E-1,5.059856921E-2,1.440727711E-1
4.595281681E0,-1.471353173E-1,6.338136643E-2,1.834863871E-1
4.605226681E0,-1.556571722E-1,8.149032295E-2,2.175738513E-1
4.615150274E0,-1.652442664E-1,8.042509109E-2,2.282261699E-1
4.625095326E0,-1.716356725E-1,4.633763805E-2,2.090519816E-1
4.635040326E0,-1.844184697E-1,3.728315700E-3,1.696383655E-1
4.644980795E0,-1.918751001E-1,-4.793548491E-3,1.344856620E-1
4.654925795E0,-1.780270636E-1,1.864157803E-2,1.280942708E-1
4.664870847E0,-1.641790420E-1,3.355484083E-2,1.451379955E-1
4.674798347E0,-1.599181145E-1,3.248960897E-2,1.749645174E-1
4.684743399E0,-1.673747450E-1,1.757634431E-2,2.015953511E-1
4.694688399E0,-1.940055639E-1,1.597849536E-3,2.111824453E-1
4.704595795E0,-2.217016220E-1,-7.989247330E-3,1.973344237E-1
4.714540847E0,-2.270277888E-1,-2.290250920E-2,1.717688292E-1
4.724485847E0,-2.099840641E-1,-4.207670316E-2,1.493989378E-1
4.734422566E0,-1.801575422E-1,-5.485950038E-2,1.408770680E-1
4.744367618E0,-1.556571722E-1,-3.035914153E-2,1.483336985E-1
4.754312618E0,-1.471353173E-1,2.609820850E-2,1.770949960E-1
4.764231264E0,-1.482005417E-1,6.231613085E-2,2.260957062E-1
4.774176264E0,-1.695052087E-1,3.675054014E-2,2.612484097E-1
4.784121316E0,-2.099840641E-1,-2.077204362E-2,2.623136342E-1
4.794057983E0,-2.280930281E-1,-5.592473224E-2,2.314218730E-1
4.804003035E0,-2.206363827E-1,-6.338136643E-2,1.760297567E-1
4.813948035E0,-1.982664913E-1,-6.125089899E-2,1.195724085E-1
4.823842566E0,-1.790923029E-1,-5.485950038E-2,9.613727778E-2
4.833787618E0,-1.439396143E-1,9.054481052E-3,1.163767055E-1
4.843732618E0,-1.215697154E-1,8.468602598E-2,1.589860320E-1
4.853685587E0,-1.290263534E-1,1.006645188E-1,1.962691844E-1
4.863630639E0,-1.524614692E-1,5.592473224E-2,2.079867423E-1
4.873575639E0,-1.727008969E-1,-1.544587873E-2,1.856168509E-1
4.883497566E0,-1.844184697E-1,-6.018566713E-2,1.451379955E-1
4.893442618E0,-1.769618392E-1,-6.977276504E-2,1.057243794E-1
4.903387618E0,-1.513962448E-1,-6.444659829E-2,8.655018359E-2
4.913314910E0,-1.343525201E-1,-5.912043154E-2,8.441971987E-2
4.923259910E0,-1.279611140E-1,-3.142437339E-2,9.720251709E-2
4.933204962E0,-1.428743750E-1,3.728315700E-3,1.131810099E-1
4.943108920E0,-1.631138027E-1,1.970681176E-2,1.291595101E-1
4.953053972E0,-1.780270636E-1,-2.663082443E-3,1.376813650E-1
4.962998972E0,-1.833532304E-1,-2.716344222E-2,1.355509013E-1
4.972928087E0,-1.652442664E-1,-3.675054014E-2,1.334204376E-1
4.982873087E0,-1.375482082E-1,-3.462007269E-2,1.312899739E-1
4.992818139E0,-1.173087880E-1,-3.994623944E-2,1.174419373E-1
5.002749285E0,-1.087869257E-1,-7.296846062E-2,8.228924870E-2
5.012694337E0,-1.258306503E-1,-1.102516204E-1,3.648423031E-2
5.022639285E0,-1.460700780E-1,-1.198387146E-1,2.663082560E-4
5.032552670E0,-1.577876359E-1,-1.336867511E-1,-5.059856921E-3
5.042497722E0,-1.513962448E-1,-1.400781423E-1,1.731003635E-2
5.052442722E0,-1.162435561E-1,-1.006645188E-1,6.098458916E-2
5.062385066E0,-8.748225868E-2,-5.272903293E-2,9.400681406E-2
5.072330118E0,-6.191666797E-2,-3.142437339E-2,9.187635034E-2
5.082275118E0,-3.954677656E-2,-4.527240247E-2,5.885412544E-2
5.092170587E0,-2.250304818E-2,-6.444659829E-2,1.331541222E-3
5.102114181E0,-9.720250964E-3,-5.059856921E-2,-4.553871229E-2
5.112057826E0,1.371487509E-2,-1.651111245E-2,-5.938674137E-2
5.121975951E0,3.395430371E-2,1.970681176E-2,-4.873441160E-2
5.131919597E0,4.141093418E-2,5.166380107E-2,-2.529928461E-2
5.141863191E0,3.821523488E-2,5.485950038E-2,-3.994623665E-3
5.151796628E0,3.288906813E-2,5.592473224E-2,9.853405878E-3
5.161740274E0,2.330197208E-2,6.338136643E-2,1.091863867E-2
5.171683868E0,1.158440951E-2,6.870753318E-2,7.722939365E-3
5.181619076E0,3.062544856E-3,9.533835202E-2,9.853405878E-3
5.191562722E0,-1.398118306E-2,1.145125479E-1,1.624480449E-2
5.201506264E0,-3.102491237E-2,1.209039465E-1,2.157096937E-2
5.211445326E0,-4.700340703E-2,1.145125479E-1,2.263620123E-2
5.221388920E0,-5.339480564E-2,1.059906855E-1,1.624480449E-2
5.231332566E0,-4.274247587E-2,1.134473160E-1,1.624480449E-2
5.241263087E0,-2.676397935E-2,1.304910481E-1,1.837527007E-2
5.251206733E0,-2.143781446E-2,1.475347728E-1,2.157096937E-2
5.261150326E0,-2.250304818E-2,1.645784974E-1,2.796236612E-2
5.271063399E0,-2.143781446E-2,1.720351279E-1,2.583190054E-2
5.281007045E0,-2.356828004E-2,1.496652365E-1,1.411433797E-2
5.290950639E0,-2.356828004E-2,1.059906855E-1,-9.320789017E-3
5.300866837E0,-8.655018173E-3,8.894696087E-2,-3.382114694E-2
5.310810483E0,1.797580719E-2,9.853405505E-2,-4.553871229E-2
5.320754076E0,3.928046674E-2,1.102516204E-1,-4.660394415E-2
5.330683295E0,4.780233279E-2,1.177082509E-1,-4.127778113E-2
5.340626941E0,3.182383627E-2,1.155777797E-1,-2.849498391E-2
5.350570535E0,3.062544856E-3,9.107742459E-2,-1.677742042E-2
5.360491993E0,-2.250304818E-2,4.740286991E-2,-7.190322969E-3
5.370435639E0,-3.528584540E-2,-2.663082443E-3,-2.929390874E-3
5.380379233E0,-2.569874749E-2,-3.888100386E-2,-1.038602181E-2
5.390315483E0,-4.394086078E-3,-5.805519968E-2,-2.316881903E-2
5.400259128E0,2.862813696E-2,-5.485950038E-2,-3.488638252E-2
5.410202722E0,7.123745978E-2,-3.568530455E-2,-5.086487532E-2
5.420136993E0,1.063901484E-1,-2.183727734E-2,-6.897383928E-2
5.430080639E0,1.308905035E-1,-2.290250920E-2,-9.880036116E-2
5.440024233E0,1.479342431E-1,-2.609820850E-2,-1.328878254E-1
5.449965170E0,1.543256342E-1,-3.888100386E-2,-1.584534049E-1
5.459908764E0,1.521951705E-1,-5.698996782E-2,-1.712362021E-1
5.469852410E0,1.585865617E-1,-6.444659829E-2,-1.605838835E-1
5.479775587E0,1.809564531E-1,-6.657706201E-2,-1.307573467E-1
5.489719233E0,1.969349533E-1,-5.485950038E-2,-9.453943372E-2
5.499662826E0,2.001306564E-1,-3.888100386E-2,-6.045197323E-2
5.509566681E0,1.841521561E-1,-3.781577200E-2,-5.086487532E-2
5.519510326E0,1.575213373E-1,-4.846810177E-2,-7.749570161E-2
5.529453920E0,1.436733007E-1,-8.468602598E-2,-1.254311949E-1
5.539400691E0,1.553908736E-1,-1.219691783E-1,-1.776276082E-1
5.549344337E0,1.916087866E-1,-1.507304758E-1,-2.127802968E-1
5.559287931E0,2.406095117E-1,-1.432738453E-1,-2.170412242E-1
5.569219962E0,2.810883522E-1,-6.551183015E-2,-1.914756298E-1
5.579163556E0,2.938711643E-1,3.568530455E-2,-1.563229412E-1
5.589107201E0,2.661750913E-1,9.533835202E-2,-1.307573467E-1
5.599003295E0,2.129134536E-1,6.551183015E-2,-1.264964193E-1
5.608945743E0,1.585865617E-1,-1.438064594E-2,-1.424749196E-1
5.618888295E0,1.298252791E-1,-7.296846062E-2,-1.531272531E-1
5.628826472E0,1.298252791E-1,-9.853405505E-2,-1.563229412E-1
5.638768920E0,1.479342431E-1,-9.959928691E-2,-1.424749196E-1
5.648711368E0,1.852173954E-1,-7.722939551E-2,-1.158440933E-1
5.658667566E0,2.182396203E-1,-2.716344222E-2,-1.051917598E-1
5.668610066E0,2.075872868E-1,1.597849536E-3,-1.222354919E-1
5.678552566E0,1.734998226E-1,-9.054481052E-3,-1.563229412E-1
5.688478816E0,1.319557428E-1,-1.864157803E-2,-1.904104054E-1
5.698421264E0,1.106510833E-1,-3.142437339E-2,-2.021279633E-1
5.708363764E0,1.266295761E-1,-4.420717061E-2,-1.808233112E-1
5.718305743E0,1.607170254E-1,-3.888100386E-2,-1.264964193E-1
5.728248243E0,1.862826198E-1,-3.355484083E-2,-7.323476672E-2
5.738190691E0,1.862826198E-1,-2.929390781E-2,-5.725627393E-2
5.748109806E0,1.703041345E-1,-4.207670316E-2,-8.921326697E-2
5.758052253E0,1.553908736E-1,-8.681648970E-2,-1.637795717E-1
5.767994753E0,1.596518010E-1,-1.145125479E-1,-2.394111156E-1
5.777899389E0,1.788259894E-1,-1.102516204E-1,-2.703028917E-1
5.787841785E0,2.022611201E-1,-4.953333735E-2,-2.394111156E-1
5.797784285E0,2.086525112E-1,4.101147130E-2,-1.627143472E-1
5.807737670E0,1.820216924E-1,1.049254537E-1,-7.856093347E-2
5.817680118E0,1.511299312E-1,1.240996495E-1,-3.275591508E-2
5.827622618E0,1.308905035E-1,1.017297506E-1,-5.299534276E-2
5.837521681E0,1.223686412E-1,3.568530455E-2,-1.179745570E-1
5.847464128E0,1.351514459E-1,-3.781577200E-2,-1.978670359E-1
5.857406681E0,1.543256342E-1,-8.255556226E-2,-2.521939278E-1
5.867328087E0,1.820216924E-1,-7.935985923E-2,-2.521939278E-1
5.877270535E0,1.948044896E-1,-1.651111245E-2,-2.053236663E-1
5.887213035E0,1.713693589E-1,7.296846062E-2,-1.456706226E-1
5.897157826E0,1.351514459E-1,1.219691783E-1,-9.880036116E-2
5.907100222E0,9.467258304E-2,9.320788831E-2,-8.708280325E-2
5.917042722E0,6.484606117E-2,1.544587873E-2,-1.062569916E-1
5.926966108E0,7.549838722E-2,-7.083799690E-2,-1.339530498E-1
5.936908608E0,1.095858440E-1,-1.347519755E-1,-1.541924775E-1
5.946851056E0,1.362166703E-1,-1.635132730E-1,-1.531272531E-1
5.956805014E0,1.671084315E-1,-1.379476786E-1,-1.307573467E-1
5.966747462E0,1.617822647E-1,-9.853405505E-2,-1.083874628E-1
5.976689962E0,1.191729456E-1,-1.123820841E-1,-1.094526947E-1
5.986586420E0,8.615072072E-2,-1.336867511E-1,-1.264964193E-1
5.996528868E0,5.738943070E-2,-1.624480337E-1,-1.446053833E-1
6.006471368E0,4.993279651E-2,-1.741656065E-1,-1.403444558E-1
6.016418920E0,5.525896326E-2,-1.688394397E-1,-1.211702600E-1
6.026361368E0,5.845466256E-2,-1.549914032E-1,-1.009308323E-1
6.036303868E0,7.017222792E-2,-1.635132730E-1,-7.323476672E-2
6.046242670E0,8.188978583E-2,-1.603175700E-1,-4.979964346E-2
6.056185170E0,7.975932211E-2,-1.283605844E-1,-4.447348043E-2
6.066127618E0,7.443315536E-2,-1.017297506E-1,-5.193011090E-2
6.076040951E0,7.869409025E-2,-6.977276504E-2,-6.364767253E-2
6.085983347E0,8.615072072E-2,-5.166380107E-2,-7.430000603E-2
6.095925899E0,8.615072072E-2,-6.018566713E-2,-8.601756394E-2
6.105844962E0,9.467258304E-2,-7.935985923E-2,-9.347419441E-2
6.115786524E0,1.213034093E-1,-9.427312016E-2,-9.986559302E-2
6.125728087E0,1.564560980E-1,-9.107742459E-2,-1.105179265E-1
6.135694181E0,1.937392503E-1,-8.362079412E-2,-1.126483902E-1
6.145635795E0,2.001306564E-1,-6.870753318E-2,-1.019960642E-1
6.155577410E0,1.734998226E-1,-4.314193875E-2,-7.962616533E-2
6.165507149E0,1.372819096E-1,3.728315700E-3,-5.619104207E-2
6.175448712E0,1.053249165E-1,2.609820850E-2,-3.914731368E-2
6.185390326E0,8.082455397E-2,-2.663082443E-3,-4.766917601E-2
6.195291576E0,6.910699606E-2,-7.722939551E-2,-8.069140464E-2
6.205233139E0,7.549838722E-2,-1.443390697E-1,-1.296921223E-1
6.215174701E0,1.074553803E-1,-1.539261788E-1,-1.754971445E-1
6.225108399E0,1.298252791E-1,-1.358172148E-1,-1.829537749E-1
6.235049962E0,1.266295761E-1,-1.059906855E-1,-1.414096802E-1
6.244991576E0,1.085206121E-1,-2.929390781E-2,-7.643046975E-2
6.254934389E0,7.869409025E-2,3.994623944E-2,-1.677742042E-2
6.264876003E0,4.354140162E-2,3.142437339E-2,7.722939365E-3
6.274817566E0,9.320789250E-4,-3.888100386E-2,-7.190322969E-3
6.284762566E0,-2.143781446E-2,-1.123820841E-1,-4.234301299E-2
6.294704128E0,-7.589785382E-3,-1.443390697E-1,-8.282186836E-2
6.304645743E0,2.010627277E-2,-1.496652365E-1,-1.169093251E-1
6.314553972E0,4.673709720E-2,-1.198387146E-1,-1.350182891E-1
6.324495535E0,4.354140162E-2,-8.468602598E-2,-1.318225861E-1
6.334437097E0,1.478010789E-2,-5.805519968E-2,-1.158440933E-1
6.344367097E0,4.127778113E-3,-3.781577200E-2,-9.453943372E-2
6.354308712E0,-1.198387123E-3,-2.290250920E-2,-6.790860742E-2
6.364250326E0,-4.394086078E-3,-2.663082443E-3,-3.914731368E-2
6.374174649E0,6.258244161E-3,3.462007269E-2,-7.190322969E-3
6.384116264E0,3.395430371E-2,8.149032295E-2,2.796236612E-2
6.394057878E0,5.099803209E-2,1.059906855E-1,4.820179567E-2
6.404026472E0,5.312849581E-2,1.070559174E-1,4.394086078E-2
6.413968087E0,5.525896326E-2,1.347519755E-1,1.837527007E-2
6.423909649E0,6.165036187E-2,1.624480337E-1,-1.890788600E-2
6.433826472E0,5.419373140E-2,1.539261788E-1,-5.299534276E-2
6.443768087E0,4.247616604E-2,1.390129030E-1,-7.430000603E-2
6.453709649E0,3.715000302E-2,1.358172148E-1,-6.790860742E-2
6.463619962E0,2.543243766E-2,1.326215118E-1,-3.701684624E-2
6.473561524E0,2.436720580E-2,1.400781423E-1,1.198387146E-2
6.483503139E0,2.862813696E-2,1.528609395E-1,5.885412544E-2
6.493462826E0,2.117150649E-2,1.294258088E-1,7.483261824E-2
6.503404389E0,1.158440951E-2,7.403369248E-2,5.991935730E-2
6.513346003E0,8.388710208E-3,2.183727734E-2,2.583190054E-2
6.523275535E0,1.691057347E-2,-1.544587873E-2,-1.038602181E-2
6.533217149E0,2.649767138E-2,-3.888100386E-2,-4.127778113E-2
6.543158712E0,3.075860441E-2,-3.462007269E-2,-5.086487532E-2
6.553093399E0,2.649767138E-2,-3.248960897E-2,-3.275591508E-2
6.563035014E0,8.388710208E-3,-2.716344222E-2,5.592473317E-3
6.572976576E0,-1.824211515E-2,-1.651111245E-2,4.287562892E-2
6.582880587E0,-3.741630912E-2,-1.651111245E-2,6.844121963E-2
6.592822201E0,-3.954677656E-2,-2.396774292E-2,7.802832127E-2
6.602763816E0,-3.741630912E-2,-4.740286991E-2,7.270215452E-2
6.612683712E0,-2.782921307E-2,-6.551183015E-2,7.057169080E-2
6.622624649E0,-1.398118306E-2,-6.551183015E-2,7.057169080E-2
6.632565483E0,-2.263620263E-3,-5.912043154E-2,5.991935730E-2
6.642506837E0,4.127778113E-3,-5.805519968E-2,3.967992961E-2
6.652447722E0,-1.398118306E-2,-7.083799690E-2,1.731003635E-2
6.662388660E0,-5.446003750E-2,-9.746882319E-2,7.722939365E-3
6.672354701E0,-8.002562821E-2,-9.640359133E-2,2.263620123E-2
6.682295587E0,-8.748225868E-2,-6.870753318E-2,6.524552405E-2
6.692236472E0,-8.109086752E-2,-3.675054014E-2,1.195724085E-1
6.702150743E0,-5.339480564E-2,3.728315700E-3,1.717688292E-1
6.712091576E0,-2.569874749E-2,4.101147130E-2,1.898777932E-1
6.722032462E0,-6.524552125E-3,5.485950038E-2,1.600512564E-1
6.731943451E0,3.062544856E-3,5.805519968E-2,9.613727778E-2
6.741884389E0,-2.250304818E-2,5.379426852E-2,2.263620123E-2
6.751825222E0,-8.215609938E-2,2.183727734E-2,-2.316881903E-2
6.761754701E0,-1.183740199E-1,7.989247330E-3,-2.636451647E-2
6.771695587E0,-1.173087880E-1,2.503297664E-2,1.304910425E-2
6.781636524E0,-1.013302878E-1,2.290250920E-2,8.548495173E-2
6.791586003E0,-8.535179496E-2,-5.326165119E-4,1.611164957E-1
6.801526837E0,-6.298190355E-2,-6.924014539E-3,2.026605755E-1
6.811467722E0,-3.422060981E-2,-5.326165119E-4,1.941387206E-1
6.821405326E0,-2.995967865E-2,7.989247330E-3,1.483336985E-1
6.831346212E0,-5.872096866E-2,1.011971384E-2,8.655018359E-2
6.841287045E0,-1.013302878E-1,1.651111245E-2,4.287562892E-2
6.851193660E0,-1.354177445E-1,2.077204362E-2,3.222329915E-2
6.861134597E0,-1.471353173E-1,2.290250920E-2,6.418029219E-2
6.871075431E0,-1.375482082E-1,3.035914153E-2,1.217028722E-1
6.881017514E0,-1.045259908E-1,3.781577200E-2,1.802906841E-1
6.890958399E0,-6.404713541E-2,5.592473224E-2,2.111824453E-1
6.900899337E0,-4.700340703E-2,7.616416365E-2,2.005301118E-1
6.910855587E0,-5.765573680E-2,9.214265645E-2,1.717688292E-1
6.920796420E0,-8.428656310E-2,1.209039465E-1,1.408770680E-1
6.930737306E0,-1.247654185E-1,1.486000121E-1,1.185071766E-1
6.940660066E0,-1.588528752E-1,1.603175700E-1,1.121157780E-1
6.950600899E0,-1.801575422E-1,1.240996495E-1,1.238333359E-1
6.960541785E0,-1.780270636E-1,6.444659829E-2,1.440727711E-1
6.970463139E0,-1.450048387E-1,1.864157803E-2,1.738992929E-1
6.980404076E0,-9.813459218E-2,-5.326165119E-4,1.983996481E-1
6.990344962E0,-6.085143611E-2,-5.326165119E-4,2.037258148E-1
7.000307149E0,-4.913387448E-2,-1.118494663E-2,1.792254597E-1
7.010248035E0,-6.191666797E-2,-2.290250920E-2,1.302247345E-1
7.020188920E0,-8.748225868E-2,-1.970681176E-2,8.761541545E-2
7.030091472E0,-1.173087880E-1,-5.858781748E-3,8.122401685E-2
7.040032358E0,-1.343525201E-1,2.503297664E-2,1.089200750E-1
7.049973243E0,-1.428743750E-1,3.888100386E-2,1.621817350E-1
7.059933035E0,-1.450048387E-1,2.503297664E-2,2.058562785E-1
7.069873868E0,-1.567224115E-1,1.651111245E-2,2.229000032E-1
7.079814753E0,-1.577876359E-1,9.054481052E-3,2.069215178E-1
7.089739962E0,-1.545919478E-1,6.924014539E-3,1.653774232E-1
7.099680847E0,-1.503310055E-1,4.793548491E-3,1.291595101E-1
7.109621733E0,-1.482005417E-1,1.544587873E-2,1.153114736E-1
7.119523764E0,-1.428743750E-1,5.592473224E-2,1.217028722E-1
7.129464076E0,-1.545919478E-1,9.427312016E-2,1.355509013E-1
7.139404389E0,-1.769618392E-1,1.027949899E-1,1.483336985E-1
7.149342514E0,-1.908098608E-1,9.427312016E-2,1.579207927E-1
7.159282826E0,-1.886793971E-1,9.746882319E-2,1.600512564E-1
7.169223139E0,-1.727008969E-1,1.134473160E-1,1.632469594E-1
7.179165170E0,-1.545919478E-1,1.017297506E-1,1.536598653E-1
7.189105483E0,-1.524614692E-1,8.255556226E-2,1.238333359E-1
7.199045795E0,-1.482005417E-1,9.320788831E-2,8.548495173E-2
7.208986837E0,-1.492657810E-1,1.219691783E-1,5.778888986E-2
7.218927149E0,-1.588528752E-1,1.549914032E-1,5.885412544E-2
7.228867462E0,-1.631138027E-1,1.603175700E-1,9.400681406E-2
7.238817931E0,-1.652442664E-1,1.379476786E-1,1.515294015E-1
7.248758243E0,-1.663095057E-1,1.283605844E-1,2.037258148E-1
7.258698503E0,-1.641790420E-1,1.358172148E-1,2.175738513E-1
7.268602774E0,-1.641790420E-1,1.379476786E-1,1.920082569E-1
7.278543087E0,-1.588528752E-1,1.347519755E-1,1.472684592E-1
7.288483399E0,-1.567224115E-1,1.390129030E-1,1.078548431E-1
7.298439962E0,-1.556571722E-1,1.304910481E-1,1.003982127E-1
7.308380274E0,-1.492657810E-1,1.304910481E-1,1.185071766E-1
7.318320587E0,-1.450048387E-1,1.411433816E-1,1.472684592E-1
7.328226472E0,-1.492657810E-1,1.283605844E-1,1.728340536E-1
7.338166785E0,-1.641790420E-1,8.894696087E-2,1.877473146E-1
7.348107097E0,-1.801575422E-1,5.272903293E-2,1.824211627E-1
7.358046368E0,-1.865489334E-1,2.822867595E-2,1.685731262E-1
7.367986681E0,-1.897446364E-1,-5.326165119E-4,1.493989378E-1
7.377926993E0,-1.940055639E-1,-1.651111245E-2,1.440727711E-1
7.387851993E0,-1.833532304E-1,-4.793548491E-3,1.504641622E-1
7.397792306E0,-1.673747450E-1,2.396774292E-2,1.600512564E-1
7.407732618E0,-1.545919478E-1,5.379426852E-2,1.589860320E-1
7.417680639E0,-1.482005417E-1,5.698996782E-2,1.462032348E-1
7.427620951E0,-1.513962448E-1,3.142437339E-2,1.227681041E-1
7.437561264E0,-1.482005417E-1,1.597849536E-3,9.400681406E-2
7.447508972E0,-1.300915778E-1,-2.183727734E-2,6.524552405E-2
7.457449233E0,-1.109173894E-1,-3.355484083E-2,3.754946589E-2
7.467389597E0,-1.098521575E-1,-3.035914153E-2,2.689713426E-2
7.477334597E0,-1.311568171E-1,-1.011971384E-2,4.713656008E-2
7.487274910E0,-1.684399694E-1,9.054481052E-3,8.335448056E-2
7.497215170E0,-2.078536004E-1,1.118494663E-2,1.153114736E-1
7.507105118E0,-2.440715134E-1,-2.929390781E-2,1.312899739E-1
7.517045431E0,-2.653761804E-1,-6.977276504E-2,1.302247345E-1
7.526985743E0,-2.536586225E-1,-6.870753318E-2,1.227681041E-1
7.536934649E0,-2.078536004E-1,-4.420717061E-2,1.025286764E-1
7.546874962E0,-1.567224115E-1,-2.503297664E-2,6.844121963E-2
7.556815274E0,-1.237001866E-1,-3.728315700E-3,2.476666868E-2
7.566770170E0,-1.151783243E-1,1.864157803E-2,-1.997311972E-2
7.576710431E0,-1.183740199E-1,3.035914153E-2,-4.873441160E-2
7.586650795E0,-1.237001866E-1,4.846810177E-2,-5.619104207E-2
7.596553868E0,-1.130478531E-1,7.083799690E-2,-3.914731368E-2
7.606494181E0,-9.706936032E-2,7.509893179E-2,-7.190322969E-3
7.616434493E0,-8.535179496E-2,6.231613085E-2,1.837527007E-2
7.626375431E0,-6.937330216E-2,6.870753318E-2,2.583190054E-2
7.636315378E0,-3.848154470E-2,8.575125784E-2,5.592473317E-3
7.646255274E0,-4.394086078E-3,1.006645188E-1,-3.808208182E-2
7.656202149E0,1.797580719E-2,1.230344176E-1,-7.003907114E-2
7.666142097E0,2.756290510E-2,1.454043090E-1,-7.536523789E-2
7.676081993E0,2.330197208E-2,1.624480337E-1,-6.151720881E-2
7.686019493E0,2.436720580E-2,1.720351279E-1,-3.808208182E-2
7.695959441E0,2.969337068E-2,1.645784974E-1,-1.571218669E-2
7.705899337E0,2.436720580E-2,1.411433816E-1,-3.994623665E-3
7.715841628E0,1.371487509E-2,1.251648813E-1,7.722939365E-3
7.725781576E0,1.158440951E-2,1.209039465E-1,2.263620123E-2
7.735721472E0,3.062544856E-3,1.219691783E-1,3.648423031E-2
7.745656524E0,-2.356828004E-2,1.070559174E-1,5.459319428E-2
7.755596472E0,-5.765573680E-2,7.403369248E-2,6.524552405E-2
7.765536368E0,-7.789516449E-2,7.509893179E-2,6.524552405E-2
7.775455066E0,-7.682993263E-2,8.894696087E-2,6.098458916E-2
7.785394962E0,-6.617759913E-2,6.657706201E-2,4.394086078E-2
7.795334858E0,-4.274247587E-2,4.314193875E-2,2.157096937E-2
7.805284701E0,-1.078548469E-2,3.142437339E-2,-2.929390874E-3
7.815224649E0,2.436720580E-2,2.183727734E-2,-3.062544949E-2
7.825164545E0,4.460663348E-2,2.503297664E-2,-4.873441160E-2
7.835065014E0,3.608476743E-2,3.888100386E-2,-4.660394415E-2
7.845004910E0,1.371487509E-2,3.994623944E-2,-2.529928461E-2
7.854944806E0,-7.589785382E-3,2.822867595E-2,5.592473317E-3
7.864875378E0,-2.356828004E-2,-4.793548491E-3,3.222329915E-2
7.874815326E0,-3.422060981E-2,-4.420717061E-2,3.967992961E-2
7.884755170E0,-2.676397935E-2,-6.870753318E-2,3.222329915E-2
7.894696212E0,-1.078548469E-2,-8.894696087E-2,1.731003635E-2
7.904636108E0,4.127778113E-3,-1.123820841E-1,-1.038602181E-2
7.914576003E0,1.584534161E-2,-1.123820841E-1,-3.488638252E-2
7.924523764E0,1.478010789E-2,-1.027949899E-1,-4.979964346E-2
7.934463712E0,3.062544856E-3,-1.017297506E-1,-5.619104207E-2
7.944403608E0,-3.328853287E-3,-9.959928691E-2,-5.406057462E-2
7.954358868E0,-1.331541280E-4,-9.107742459E-2,-5.086487532E-2
7.964298816E0,1.584534161E-2,-7.722939551E-2,-4.340824485E-2
7.974238712E0,3.395430371E-2,-5.272903293E-2,-3.382114694E-2
7.984171785E0,5.738943070E-2,-2.609820850E-2,-2.636451647E-2
7.994111733E0,7.443315536E-2,-2.290250920E-2,-3.169068322E-2
8.004051628E0,8.828118443E-2,-3.994623944E-2,-4.979964346E-2
8.013979910E0,1.010639817E-1,-4.953333735E-2,-7.749570161E-2
8.023919806E0,1.159772426E-1,-5.166380107E-2,-1.062569916E-1
8.033859701E0,1.404775977E-1,-5.166380107E-2,-1.275616586E-1
8.043784285E0,1.671084315E-1,-4.101147130E-2,-1.414096802E-1
8.053724233E0,1.905435622E-1,-2.609820850E-2,-1.435401440E-1
8.063664128E0,2.075872868E-1,-2.183727734E-2,-1.360835135E-1
8.073611108E0,2.001306564E-1,-1.864157803E-2,-1.318225861E-1
8.083551056E0,1.745650619E-1,-3.675054014E-2,-1.275616586E-1
8.093490951E0,1.500647068E-1,-6.657706201E-2,-1.254311949E-1
8.103397774E0,1.447385401E-1,-9.001219273E-2,-1.233007237E-1
8.113337670E0,1.671084315E-1,-9.959928691E-2,-1.179745570E-1
8.123277566E0,2.033263594E-1,-6.231613085E-2,-1.115831584E-1
8.133238191E0,2.448704392E-1,3.728315700E-3,-1.041265279E-1
8.143177826E0,2.576532364E-1,3.781577200E-2,-1.115831584E-1
8.153117462E0,2.235657871E-1,1.011971384E-2,-1.371487528E-1
8.163057931E0,1.766955256E-1,-4.420717061E-2,-1.659100503E-1
8.172997566E0,1.500647068E-1,-5.379426852E-2,-1.850842386E-1
8.182937201E0,1.553908736E-1,-4.420717061E-2,-1.786928326E-1
8.192864858E0,1.926740259E-1,-4.101147130E-2,-1.531272531E-1
8.202804545E0,2.331528813E-1,-1.864157803E-2,-1.158440933E-1
8.212744128E0,2.512618303E-1,-1.544587873E-2,-8.601756394E-2
8.222660639E0,2.427399755E-1,-4.633763805E-2,-9.347419441E-2
8.232600274E0,2.235657871E-1,-8.042509109E-2,-1.328878254E-1
8.242539910E0,1.980001926E-1,-1.081211492E-1,-1.914756298E-1
8.252497826E0,1.926740259E-1,-9.001219273E-2,-2.351501882E-1
8.262437462E0,2.097177505E-1,-6.444659829E-2,-2.362154275E-1
8.272377097E0,2.470009029E-1,-2.077204362E-2,-1.872147024E-1
8.282321003E0,2.842840552E-1,1.438064594E-2,-1.350182891E-1
8.292260587E0,2.768274248E-1,-3.035914153E-2,-1.105179265E-1
8.302200222E0,2.512618303E-1,-1.209039465E-1,-1.254311949E-1
8.312091420E0,2.310224175E-1,-1.762960702E-1,-1.797580719E-1
8.322031056E0,2.065220475E-1,-2.103835195E-1,-2.330197245E-1
8.331970639E0,1.873478591E-1,-2.593842447E-1,-2.564548552E-1
8.341914493E0,1.788259894E-1,-2.679060996E-1,-2.372806519E-1
8.351854128E0,1.745650619E-1,-2.103835195E-1,-1.818885356E-1
8.361793712E0,1.713693589E-1,-1.251648813E-1,-1.179745570E-1
8.371721212E0,1.596518010E-1,-7.296846062E-2,-5.619104207E-2
8.381660847E0,1.394123733E-1,-6.870753318E-2,-2.423405088E-2
8.391600431E0,1.244991124E-1,-5.805519968E-2,-3.808208182E-2
8.401530222E0,1.351514459E-1,-5.912043154E-2,-8.388710022E-2
8.411469858E0,1.458037645E-1,-9.853405505E-2,-1.478010863E-1
8.421409493E0,1.468690038E-1,-1.507304758E-1,-1.936061084E-1
8.431361108E0,1.585865617E-1,-1.539261788E-1,-2.021279633E-1
8.441300743E0,1.703041345E-1,-1.219691783E-1,-1.786928326E-1
8.451240378E0,1.660431921E-1,-8.468602598E-2,-1.382139921E-1
8.461172514E0,1.511299312E-1,-5.698996782E-2,-9.347419441E-2
8.471112149E0,1.394123733E-1,-5.698996782E-2,-7.749570161E-2
8.481051733E0,1.362166703E-1,-7.722939551E-2,-9.560466558E-2
8.491010743E0,1.458037645E-1,-9.214265645E-2,-1.318225861E-1
8.500950378E0,1.447385401E-1,-1.294258088E-1,-1.712362021E-1
8.510890014E0,1.607170254E-1,-1.656437367E-1,-1.872147024E-1
8.520819806E0,1.948044896E-1,-1.177082509E-1,-1.595186442E-1
8.530759441E0,2.139786780E-1,-5.166380107E-2,-1.179745570E-1
8.540699076E0,2.065220475E-1,-1.118494663E-2,-7.856093347E-2
8.550603243E0,1.766955256E-1,-2.663082443E-3,-5.512581021E-2
8.560542878E0,1.500647068E-1,-2.290250920E-2,-6.790860742E-2
8.570482462E0,1.521951705E-1,-3.888100386E-2,-1.062569916E-1
8.580446941E0,1.639127284E-1,-6.551183015E-2,-1.552577168E-1
8.590386576E0,1.745650619E-1,-1.262301207E-1,-1.861494780E-1
8.600326160E0,1.916087866E-1,-1.240996495E-1,-1.829537749E-1
8.610264128E0,1.905435622E-1,-8.681648970E-2,-1.573881805E-1
8.620203764E0,1.734998226E-1,-6.764229387E-2,-1.339530498E-1
8.630143399E0,1.447385401E-1,-7.616416365E-2,-1.179745570E-1
8.640085483E0,9.999874979E-2,-1.336867511E-1,-1.169093251E-1
8.650024806E0,5.312849581E-2,-2.231663167E-1,-1.296921223E-1
8.659964181E0,2.543243766E-2,-2.945369184E-1,-1.392792165E-1
8.669874181E0,1.691057347E-2,-3.232982159E-1,-1.296921223E-1
8.679813503E0,1.478010789E-2,-3.211677670E-1,-1.137136221E-1
8.689752826E0,1.904104091E-2,-2.785584331E-1,-9.986559302E-2
8.699689701E0,2.756290510E-2,-2.252967805E-1,-9.880036116E-2
8.709629024E0,3.501953557E-2,-1.976007223E-1,-1.115831584E-1
8.719568347E0,2.436720580E-2,-2.071878165E-1,-1.446053833E-1
8.729522878E0,1.691057347E-2,-2.434057444E-1,-1.797580719E-1
8.739462253E0,2.436720580E-2,-2.679060996E-1,-1.925408691E-1
8.749401576E0,3.395430371E-2,-2.764279842E-1,-1.754971445E-1
8.759343243E0,3.928046674E-2,-2.508623898E-1,-1.296921223E-1
8.769282566E0,4.247616604E-2,-1.890788674E-1,-7.536523789E-2
8.779221941E0,3.608476743E-2,-1.539261788E-1,-4.127778113E-2
8.789114701E0,1.691057347E-2,-1.752308309E-1,-3.701684624E-2
8.799054024E0,1.997311832E-3,-2.007964253E-1,-5.725627393E-2
8.808993347E0,-8.655018173E-3,-2.114487588E-1,-9.773512930E-2
8.818943139E0,-9.720250964E-3,-2.178401500E-1,-1.275616586E-1
8.828882462E0,3.062544856E-3,-1.890788674E-1,-1.264964193E-1
8.838821785E0,1.158440951E-2,-1.155777797E-1,-9.773512930E-2
8.848774128E0,2.543243766E-2,-3.142437339E-2,-5.619104207E-2
8.858713503E0,3.395430371E-2,1.331541315E-2,-1.784265228E-2
8.868652826E0,4.354140162E-2,1.225017942E-2,-2.929390874E-3
8.878562931E0,4.673709720E-2,1.597849536E-3,-9.320789017E-3
8.888502253E0,4.673709720E-2,-9.054481052E-3,-2.636451647E-2
8.898441628E0,4.780233279E-2,-5.858781748E-3,-4.660394415E-2
8.908392878E0,3.821523488E-2,4.793548491E-3,-6.790860742E-2
8.918332201E0,2.436720580E-2,1.118494663E-2,-7.749570161E-2
8.928271576E0,3.501953557E-2,4.101147130E-2,-6.897383928E-2
8.938196472E0,4.780233279E-2,7.296846062E-2,-5.299534276E-2
8.948135795E0,5.738943070E-2,8.575125784E-2,-3.914731368E-2
8.958075170E0,7.123745978E-2,1.070559174E-1,-2.423405088E-2
8.967999545E0,7.656362653E-2,1.400781423E-1,-1.677742042E-2
8.977938868E0,7.975932211E-2,1.816222370E-1,-1.251648832E-2
8.987878191E0,8.188978583E-2,2.252967805E-1,-7.190322969E-3
8.997847462E0,7.123745978E-2,2.604494691E-1,-7.989247679E-4
9.007786785E0,4.354140162E-2,2.625799477E-1,1.331541222E-3
9.017726160E0,4.127778113E-3,2.306229472E-1,-6.125089712E-3
9.027630535E0,-4.380770773E-2,1.901440918E-1,-1.677742042E-2
9.037569858E0,-7.150376588E-2,1.581871063E-1,-1.251648832E-2
9.047509181E0,-6.830807030E-2,1.475347728E-1,1.517957076E-2
9.057472358E0,-5.232957378E-2,1.432738453E-1,5.352795869E-2
9.067411681E0,-1.291595027E-2,1.198387146E-1,8.441971987E-2
9.077351003E0,2.862813696E-2,1.145125479E-1,8.655018359E-2
9.087298139E0,4.886756465E-2,1.049254537E-1,5.139749497E-2
9.097237514E0,3.395430371E-2,6.657706201E-2,-1.864157850E-3
9.107176837E0,-7.589785382E-3,2.609820850E-2,-4.660394415E-2
9.117076837E0,-5.552527308E-2,1.438064594E-2,-5.619104207E-2
9.127016160E0,-8.854749799E-2,1.757634431E-2,-1.890788600E-2
9.136955535E0,-1.013302878E-1,3.728315700E-3,5.459319428E-2
9.146923399E0,-1.034607589E-1,-6.924014539E-3,1.270290315E-1
9.156862462E0,-7.363422960E-2,1.597849536E-3,1.749645174E-1
9.166801524E0,-1.611164957E-2,2.609820850E-2,1.760297567E-1
9.176710951E0,2.969337068E-2,2.503297664E-2,1.259638071E-1
9.186650014E0,5.206326395E-2,2.716344222E-2,5.885412544E-2
9.196589076E0,4.034570232E-2,4.633763805E-2,1.411433797E-2
9.206516993E0,9.453942999E-3,4.953333735E-2,9.853405878E-3
9.216456003E0,-1.504641678E-2,5.059856921E-2,3.222329915E-2
9.226395066E0,-2.995967865E-2,4.101147130E-2,6.311506033E-2
9.236345899E0,-3.422060981E-2,1.651111245E-2,9.294158220E-2
9.246284962E0,-6.524552125E-3,3.035914153E-2,1.131810099E-1
9.256224076E0,4.247616604E-2,5.698996782E-2,1.142462417E-1
9.266147514E0,7.123745978E-2,5.805519968E-2,8.868064731E-2
9.276086628E0,8.615072072E-2,6.977276504E-2,5.246272683E-2
9.286025691E0,7.762885839E-2,1.070559174E-1,3.009283356E-2
9.295963868E0,4.247616604E-2,1.358172148E-1,2.796236612E-2
9.305902931E0,-3.328853287E-3,1.390129030E-1,4.287562892E-2
9.315841993E0,-4.593817517E-2,1.017297506E-1,5.885412544E-2
9.325804441E0,-7.896039635E-2,4.740286991E-2,8.015878499E-2
9.335743503E0,-8.748225868E-2,1.651111245E-2,9.933298081E-2
9.345682566E0,-7.256899774E-2,3.142437339E-2,1.035939083E-1
9.355583712E0,-4.700340703E-2,7.935985923E-2,8.761541545E-2
9.365522774E0,-2.463351376E-2,1.230344176E-1,6.737598777E-2
9.375461785E0,-2.995967865E-2,1.251648813E-1,5.459319428E-2
9.385402931E0,-4.913387448E-2,1.411433816E-1,5.459319428E-2
9.395341993E0,-7.469946891E-2,1.645784974E-1,7.483261824E-2
9.405281056E0,-9.706936032E-2,1.549914032E-1,9.187635034E-2
9.415224181E0,-1.173087880E-1,8.894696087E-2,9.826774895E-2
9.425163295E0,-1.332872808E-1,1.118494663E-2,9.720251709E-2
9.435102358E0,-1.258306503E-1,-1.544587873E-2,9.613727778E-2
9.445057618E0,-1.087869257E-1,-1.597849536E-3,9.400681406E-2
9.454996681E0,-9.813459218E-2,2.396774292E-2,1.025286764E-1
9.464935743E0,-1.002650559E-1,5.485950038E-2,1.217028722E-1
9.474867670E0,-1.162435561E-1,8.362079412E-2,1.355509013E-1
9.484806733E0,-1.247654185E-1,1.155777797E-1,1.280942708E-1
9.494745795E0,-1.290263534E-1,1.070559174E-1,1.131810099E-1
9.504672670E0,-1.279611140E-1,7.722939551E-2,8.974587917E-2
9.514611733E0,-1.311568171E-1,8.681648970E-2,7.802832127E-2
9.524550795E0,-1.279611140E-1,8.788172156E-2,1.110505462E-1
9.534507045E0,-1.311568171E-1,7.190322876E-2,1.611164957E-1
9.544446108E0,-1.354177445E-1,7.296846062E-2,2.122476846E-1
9.554385170E0,-1.364829838E-1,1.091863886E-1,2.463351339E-1
9.564332358E0,-1.407439113E-1,1.368824393E-1,2.484655976E-1
9.574271420E0,-1.503310055E-1,1.347519755E-1,2.133129090E-1
9.584210483E0,-1.513962448E-1,1.166430190E-1,1.653774232E-1
9.594096264E0,-1.535267085E-1,7.616416365E-2,1.121157780E-1
9.604035326E0,-1.556571722E-1,4.207670316E-2,6.204982474E-2
9.613974389E0,-1.545919478E-1,9.054481052E-3,3.648423031E-2
9.623921264E0,-1.343525201E-1,-1.331541315E-2,5.459319428E-2
9.633860378E0,-1.173087880E-1,-1.544587873E-2,9.294158220E-2
9.643799441E0,-1.364829838E-1,-1.438064594E-2,1.280942708E-1
9.653752306E0,-1.599181145E-1,-2.663082443E-3,1.525946259E-1
9.663691108E0,-1.833532304E-1,-3.728315700E-3,1.589860320E-1
9.673629962E0,-2.067883611E-1,-2.396774292E-2,1.504641622E-1
9.683575483E0,-2.185059190E-1,-4.740286991E-2,1.376813650E-1
9.693514285E0,-2.174406946E-1,-7.190322876E-2,1.355509013E-1
9.703453087E0,-2.014621943E-1,-9.001219273E-2,1.408770680E-1
9.713360535E0,-1.769618392E-1,-8.894696087E-2,1.525946259E-1
9.723299337E0,-1.652442664E-1,-6.551183015E-2,1.621817350E-1
9.733238139E0,-1.652442664E-1,-3.781577200E-2,1.696383655E-1
9.743188295E0,-1.790923029E-1,-3.675054014E-2,1.728340536E-1
9.753127149E0,-1.961360276E-1,-4.420717061E-2,1.664426625E-1
9.763065951E0,-2.067883611E-1,-4.846810177E-2,1.536598653E-1
9.772982931E0,-2.089188248E-1,-5.059856921E-2,1.312899739E-1
9.782921681E0,-2.046578974E-1,-3.568530455E-2,1.099853069E-1
9.792860535E0,-1.982664913E-1,-1.118494663E-2,1.067896113E-1
9.802836316E0,-1.886793971E-1,9.054481052E-3,1.206376404E-1
9.812775118E0,-1.854836941E-1,1.544587873E-2,1.462032348E-1
9.822713920E0,-1.929403245E-1,1.011971384E-2,1.653774232E-1
9.832611941E0,-1.972012669E-1,7.989247330E-3,1.802906841E-1
9.842550743E0,-2.046578974E-1,1.544587873E-2,1.898777932E-1
9.852489545E0,-2.003969699E-1,1.331541315E-2,1.866820902E-1
9.862454441E0,-1.865489334E-1,-3.728315700E-3,1.675078869E-1
9.872393243E0,-1.737661362E-1,-2.663082443E-3,1.376813650E-1
9.882332097E0,-1.663095057E-1,4.793548491E-3,1.206376404E-1
9.892247253E0,-1.631138027E-1,2.663082443E-3,1.259638071E-1
9.902186056E0,-1.513962448E-1,2.716344222E-2,1.515294015E-1
9.912124910E0,-1.556571722E-1,4.420717061E-2,1.866820902E-1
9.922061681E0,-1.758965999E-1,3.462007269E-2,2.079867423E-1
9.932000483E0,-1.854836941E-1,2.716344222E-2,2.079867423E-1
9.941939285E0,-1.812227666E-1,1.331541315E-2,1.866820902E-1
9.951899858E0,-1.652442664E-1,6.924014539E-3,1.525946259E-1
9.961838660E0,-1.407439113E-1,7.989247330E-3,1.238333359E-1
9.971777514E0,-1.311568171E-1,1.331541315E-2,1.206376404E-1
9.981690170E0,-1.300915778E-1,6.444659829E-2,1.408770680E-1
9.991628972E0,-1.258306503E-1,1.336867511E-1,1.824211627E-1
1.000156777E1,-1.364829838E-1,1.219691783E-1,2.005301118E-1
1.001149897E1,-1.620485783E-1,6.764229387E-2,1.802906841E-1
1.002143772E1,-1.812227666E-1,1.597849536E-3,1.355509013E-1
1.003137658E1,-1.854836941E-1,-6.444659829E-2,8.548495173E-2
1.004133090E1,-1.663095057E-1,-8.575125784E-2,4.820179567E-2
1.005126975E1,-1.428743750E-1,-7.083799690E-2,3.648423031E-2
1.006120856E1,-1.205044836E-1,-2.929390781E-2,3.648423031E-2
1.007115897E1,-1.098521575E-1,1.970681176E-2,3.967992961E-2
1.008109777E1,-1.183740199E-1,4.740286991E-2,3.222329915E-2
1.009103663E1,-1.247654185E-1,5.912043154E-2,2.476666868E-2
1.010094970E1,-1.215697154E-1,5.485950038E-2,1.837527007E-2
1.011088856E1,-1.087869257E-1,3.035914153E-2,1.411433797E-2
1.012082736E1,-8.961272985E-2,-1.544587873E-2,3.462007269E-3
1.013075043E1,-6.191666797E-2,-4.207670316E-2,-1.784265228E-2
1.014068918E1,-2.782921307E-2,-4.953333735E-2,-5.086487532E-2
1.015062804E1,1.997311832E-3,-3.035914153E-2,-8.495233208E-2
1.016056949E1,2.010627277E-2,1.864157803E-2,-1.062569916E-1
1.017050809E1,1.371487509E-2,5.698996782E-2,-1.062569916E-1
1.018044668E1,9.320789250E-4,9.320788831E-2,-8.069140464E-2
1.019039319E1,-6.524552125E-3,1.315562725E-1,-4.873441160E-2
1.020033173E1,-2.356828004E-2,1.230344176E-1,-2.636451647E-2
1.021027033E1,-3.635107726E-2,8.042509109E-2,-1.145125460E-2
1.022020668E1,-3.102491237E-2,6.338136643E-2,-7.989247679E-4
1.023014522E1,-1.504641678E-2,6.977276504E-2,5.592473317E-3
1.024008382E1,9.320789250E-4,8.255556226E-2,7.722939365E-3
1.025004022E1,9.320789250E-4,9.853405505E-2,4.527240526E-3
1.025997882E1,-1.611164957E-2,1.155777797E-1,-6.125089712E-3
1.026991736E1,-4.593817517E-2,1.155777797E-1,-1.571218669E-2
1.027985413E1,-5.659050494E-2,1.017297506E-1,-1.251648832E-2
1.028979267E1,-3.848154470E-2,1.145125479E-1,7.722939365E-3
1.029973126E1,-1.331541280E-4,1.592523307E-1,3.541899845E-2
1.030964152E1,3.715000302E-2,2.061225921E-1,5.246272683E-2
1.031958012E1,5.738943070E-2,2.370143533E-1,5.246272683E-2
1.032951871E1,5.312849581E-2,2.242315561E-1,2.370143496E-2
1.033946892E1,3.928046674E-2,1.784265339E-1,-2.210358530E-2
1.034940746E1,1.691057347E-2,1.113168523E-1,-6.577813625E-2
1.035934606E1,3.062544856E-3,4.953333735E-2,-9.027849883E-2
1.036930626E1,1.797580719E-2,2.822867595E-2,-8.708280325E-2
1.037924486E1,5.206326395E-2,4.527240247E-2,-6.897383928E-2
1.038918340E1,8.402025700E-2,6.657706201E-2,-5.406057462E-2
1.039910897E1,9.467258304E-2,9.853405505E-2,-4.127778113E-2
1.040904751E1,8.082455397E-2,1.081211492E-1,-3.808208182E-2
1.041898611E1,5.738943070E-2,9.214265645E-2,-4.340824485E-2
1.042889913E1,3.715000302E-2,6.764229387E-2,-5.619104207E-2
1.043883772E1,9.453942999E-3,2.183727734E-2,-7.003907114E-2
1.044877632E1,-1.717688330E-2,-1.757634431E-2,-7.110430300E-2
1.045873304E1,-2.995967865E-2,-1.118494663E-2,-4.873441160E-2
1.046867158E1,-2.782921307E-2,3.675054014E-2,-1.251648832E-2
1.047861017E1,-2.995967865E-2,9.001219273E-2,1.944050193E-2
1.048852559E1,-3.422060981E-2,1.219691783E-1,4.181039706E-2
1.049846418E1,-4.167724028E-2,1.230344176E-1,4.394086078E-2
1.050840277E1,-4.061200842E-2,9.427312016E-2,2.583190054E-2
1.051834835E1,-2.463351376E-2,5.272903293E-2,2.396774245E-3
1.052828689E1,-7.589785382E-3,2.716344222E-2,-1.677742042E-2
1.053822548E1,9.453942999E-3,1.970681176E-2,-2.210358530E-2
1.054817981E1,2.330197208E-2,3.888100386E-2,-1.358172111E-2
1.055811840E1,2.649767138E-2,8.042509109E-2,1.331541222E-3
1.056805694E1,1.478010789E-2,9.959928691E-2,1.837527007E-2
1.057797017E1,1.997311832E-3,9.107742459E-2,3.328853101E-2
1.058790876E1,-8.655018173E-3,4.420717061E-2,4.181039706E-2
1.059784736E1,-1.717688330E-2,-2.290250920E-2,3.648423031E-2
1.060778449E1,-1.504641678E-2,-8.149032295E-2,2.157096937E-2
1.061772309E1,-5.459319334E-3,-1.155777797E-1,5.592473317E-3
1.062766168E1,-4.394086078E-3,-1.251648813E-1,-1.038602181E-2
1.063759902E1,-1.078548469E-2,-1.102516204E-1,-1.784265228E-2
1.064753762E1,-2.143781446E-2,-8.575125784E-2,-9.320789017E-3
1.065747621E1,-4.380770773E-2,-7.509893179E-2,9.853405878E-3
1.066742100E1,-5.872096866E-2,-8.042509109E-2,3.115806542E-2
1.067735954E1,-6.298190355E-2,-9.640359133E-2,5.246272683E-2
1.068729809E1,-6.191666797E-2,-1.326215118E-1,6.418029219E-2
1.069724460E1,-5.126433820E-2,-1.603175700E-1,6.098458916E-2
1.070718309E1,-2.463351376E-2,-1.624480337E-1,4.394086078E-2
1.071712158E1,9.453942999E-3,-1.496652365E-1,1.411433797E-2
1.072703939E1,4.141093418E-2,-1.219691783E-1,-1.890788600E-2
1.073697793E1,6.271559745E-2,-8.042509109E-2,-4.021254554E-2
1.074691642E1,7.230269164E-2,-4.207670316E-2,-4.660394415E-2
1.075688746E1,6.484606117E-2,-2.503297664E-2,-4.234301299E-2
1.076682595E1,4.673709720E-2,-4.101147130E-2,-3.488638252E-2
1.077676449E1,3.182383627E-2,-7.509893179E-2,-2.849498391E-2
1.078666679E1,2.436720580E-2,-1.166430190E-1,-2.636451647E-2
1.079660533E1,3.501953557E-2,-1.443390697E-1,-3.275591508E-2
1.080654382E1,6.378082931E-2,-1.464695334E-1,-4.234301299E-2
1.081649486E1,8.934641629E-2,-1.315562725E-1,-5.299534276E-2
1.082643335E1,1.063901484E-1,-9.320788831E-2,-5.619104207E-2
1.083637189E1,1.191729456E-1,-3.248960897E-2,-4.979964346E-2
1.084633408E1,1.031944528E-1,1.331541315E-2,-4.127778113E-2
1.085627262E1,6.165036187E-2,7.989247330E-3,-4.766917601E-2
1.086621111E1,4.460663348E-2,-3.142437339E-2,-7.323476672E-2
1.087614168E1,5.845466256E-2,-6.551183015E-2,-1.083874628E-1
1.088608017E1,8.721595258E-2,-9.107742459E-2,-1.307573467E-1
1.089601871E1,1.181077138E-1,-6.657706201E-2,-1.318225861E-1
1.090595361E1,1.404775977E-1,3.728315700E-3,-1.105179265E-1
1.091589210E1,1.415428370E-1,7.403369248E-2,-7.323476672E-2
1.092583059E1,1.159772426E-1,1.272953451E-1,-3.275591508E-2
1.093576840E1,7.869409025E-2,1.613828093E-1,-1.571218669E-2
1.094570689E1,3.182383627E-2,1.603175700E-1,-3.275591508E-2
1.095564538E1,-3.328853287E-3,1.102516204E-1,-6.258244067E-2
1.096556277E1,5.193010904E-3,3.994623944E-2,-8.708280325E-2
1.097550132E1,3.715000302E-2,-4.793548491E-3,-9.560466558E-2
1.098543986E1,6.378082931E-2,5.858781748E-3,-7.536523789E-2
1.099539704E1,7.017222792E-2,5.166380107E-2,-3.914731368E-2
1.100533554E1,5.845466256E-2,9.640359133E-2,-6.125089712E-3
1.101527408E1,2.117150649E-2,1.166430190E-1,2.157096937E-2
1.102517746E1,-2.995967865E-2,8.149032295E-2,2.476666868E-2
1.103511600E1,-6.298190355E-2,2.716344222E-2,-2.929390874E-3
1.104505449E1,-6.511236727E-2,1.438064594E-2,-4.979964346E-2
1.105499767E1,-3.209014609E-2,1.597849536E-3,-9.027849883E-2
1.106493621E1,1.051917579E-2,-9.054481052E-3,-1.019960642E-1
1.107487470E1,6.165036187E-2,4.740286991E-2,-7.216953486E-2
1.108483455E1,1.202381775E-1,1.262301207E-1,-2.849498391E-2
1.109477304E1,1.500647068E-1,1.901440918E-1,-1.864157850E-3
1.110471158E1,1.447385401E-1,2.189053893E-1,-7.989247679E-4
1.111465481E1,1.298252791E-1,2.071878165E-1,-1.890788600E-2
1.112459330E1,1.021292135E-1,1.773612946E-1,-4.979964346E-2
1.113453184E1,6.697652489E-2,1.102516204E-1,-8.388710022E-2
1.114444496E1,6.271559745E-2,4.846810177E-2,-1.019960642E-1
1.115438350E1,7.869409025E-2,1.864157803E-2,-9.880036116E-2
1.116432204E1,9.573781490E-2,-4.793548491E-3,-1.009308323E-1
1.117425090E1,1.255643368E-1,2.663082443E-3,-9.986559302E-2
1.118418923E1,1.500647068E-1,2.290250920E-2,-9.560466558E-2
1.119412762E1,1.607170254E-1,4.633763805E-2,-9.880036116E-2
1.120409413E1,1.628475040E-1,3.675054014E-2,-1.126483902E-1
1.121403251E1,1.724345982E-1,1.331541315E-2,-1.307573467E-1
1.122397090E1,1.873478591E-1,-2.663082443E-3,-1.403444558E-1
1.123391168E1,1.905435622E-1,-5.858781748E-3,-1.360835135E-1
1.124385007E1,1.980001926E-1,1.970681176E-2,-1.126483902E-1
1.125378840E1,2.022611201E-1,4.846810177E-2,-8.282186836E-2
1.126372574E1,1.777607650E-1,2.716344222E-2,-7.536523789E-2
1.127366413E1,1.415428370E-1,-3.142437339E-2,-9.347419441E-2
1.128360246E1,1.085206121E-1,-1.155777797E-1,-1.382139921E-1
1.129352262E1,8.188978583E-2,-2.210358530E-1,-1.914756298E-1
1.130346100E1,7.443315536E-2,-2.977326214E-1,-2.213021666E-1
1.131339934E1,9.147688746E-2,-3.147763610E-1,-2.010627389E-1
1.132335043E1,1.213034093E-1,-2.849498391E-1,-1.446053833E-1
1.133328882E1,1.660431921E-1,-1.986659616E-1,-8.175663650E-2
1.134322720E1,1.969349533E-1,-1.102516204E-1,-3.914731368E-2
1.135316647E1,1.990654171E-1,-8.149032295E-2,-2.956021577E-2
1.136310486E1,1.894783229E-1,-9.214265645E-2,-5.299534276E-2
1.137304319E1,1.734998226E-1,-1.251648813E-1,-9.347419441E-2
1.138295434E1,1.617822647E-1,-1.784265339E-1,-1.339530498E-1
1.139289272E1,1.660431921E-1,-2.018616647E-1,-1.499315500E-1
1.140283111E1,1.777607650E-1,-1.773612946E-1,-1.456706226E-1
1.141279512E1,1.766955256E-1,-1.443390697E-1,-1.339530498E-1
1.142273350E1,1.681736708E-1,-9.533835202E-2,-1.222354919E-1
1.143267184E1,1.713693589E-1,-4.740286991E-2,-1.041265279E-1
1.144258335E1,1.692388952E-1,-2.183727734E-2,-9.773512930E-2
1.145252173E1,1.575213373E-1,-3.781577200E-2,-1.073222235E-1
1.146246012E1,1.415428370E-1,-9.533835202E-2,-1.360835135E-1
1.147241111E1,1.308905035E-1,-1.400781423E-1,-1.509967744E-1
1.148234949E1,1.394123733E-1,-1.304910481E-1,-1.286268830E-1
1.149228783E1,1.479342431E-1,-9.001219273E-2,-8.069140464E-2
1.150222986E1,1.500647068E-1,-5.379426852E-2,-3.062544949E-2
1.151216819E1,1.298252791E-1,-2.396774292E-2,5.592473317E-3
1.152210658E1,1.042596847E-1,-2.822867595E-2,1.091863867E-2
1.153201944E1,7.869409025E-2,-7.296846062E-2,-1.677742042E-2
1.154195788E1,5.206326395E-2,-1.166430190E-1,-6.045197323E-2
1.155189621E1,4.567186534E-2,-1.230344176E-1,-9.134373069E-2
1.156183350E1,3.928046674E-2,-9.746882319E-2,-1.051917598E-1
1.157177189E1,4.886756465E-2,-7.190322876E-2,-1.083874628E-1
1.158171027E1,6.165036187E-2,-3.035914153E-2,-9.666989744E-2
1.159167600E1,6.697652489E-2,-1.597849536E-3,-9.134373069E-2
1.160161439E1,6.804175675E-2,-1.757634431E-2,-8.601756394E-2
1.161155272E1,6.165036187E-2,-3.568530455E-2,-8.175663650E-2
1.162147533E1,5.951989442E-2,-4.953333735E-2,-7.643046975E-2
1.163141366E1,6.804175675E-2,-2.503297664E-2,-7.110430300E-2
1.164135205E1,7.656362653E-2,1.118494663E-2,-6.471290439E-2
1.165131262E1,9.467258304E-2,3.462007269E-2,-6.258244067E-2
1.166125100E1,1.053249165E-1,4.633763805E-2,-6.471290439E-2
1.167118934E1,9.893351793E-2,5.166380107E-2,-6.577813625E-2
1.168109095E1,8.828118443E-2,5.592473224E-2,-6.364767253E-2
1.169102928E1,6.804175675E-2,6.018566713E-2,-6.577813625E-2
1.170096762E1,4.354140162E-2,4.207670316E-2,-6.790860742E-2
1.171093783E1,3.182383627E-2,2.609820850E-2,-5.619104207E-2
1.172087611E1,4.247616604E-2,2.290250920E-2,-3.595161438E-2
1.173081444E1,6.910699606E-2,2.290250920E-2,-2.529928461E-2
1.174074569E1,9.573781490E-2,3.462007269E-2,-3.169068322E-2
1.175068397E1,1.138467789E-1,2.929390781E-2,-4.660394415E-2
1.176062231E1,1.010639817E-1,2.183727734E-2,-5.725627393E-2
1.177053845E1,6.484606117E-2,3.248960897E-2,-5.299534276E-2
1.178047679E1,2.117150649E-2,4.846810177E-2,-3.169068322E-2
1.179041512E1,-2.463351376E-2,7.190322876E-2,-5.059856921E-3
1.180035626E1,-5.232957378E-2,8.468602598E-2,2.370143496E-2
1.181029455E1,-5.232957378E-2,7.190322876E-2,5.139749497E-2
1.182023288E1,-4.167724028E-2,5.698996782E-2,5.778888986E-2
1.183016314E1,-8.655018173E-3,4.740286991E-2,4.394086078E-2
1.184010142E1,2.330197208E-2,4.633763805E-2,2.157096937E-2
1.185003975E1,2.862813696E-2,6.870753318E-2,-1.677742042E-2
1.185999246E1,1.584534161E-2,9.746882319E-2,-3.275591508E-2
1.186993074E1,-6.524552125E-3,1.517957002E-1,-2.210358530E-2
1.187986908E1,-9.720250964E-3,1.784265339E-1,5.592473317E-3
1.188982152E1,-2.995967865E-2,1.624480337E-1,3.967992961E-2
1.189975986E1,-4.913387448E-2,1.230344176E-1,6.311506033E-2
1.190969814E1,-3.528584540E-2,5.272903293E-2,8.335448056E-2
1.191960111E1,-2.569874749E-2,1.331541315E-2,6.950645149E-2
1.192953944E1,-9.720250964E-3,6.924014539E-3,3.861469775E-2
1.193947777E1,1.997311832E-3,9.054481052E-3,7.722939365E-3
1.194942314E1,-6.524552125E-3,1.970681176E-2,-1.358172111E-2
1.195936147E1,-1.611164957E-2,3.675054014E-2,-1.571218669E-2
1.196929981E1,-2.356828004E-2,5.272903293E-2,-5.059856921E-3
1.197924007E1,-2.569874749E-2,4.633763805E-2,1.411433797E-2
1.198917835E1,-2.356828004E-2,2.396774292E-2,3.861469775E-2
1.199911668E1,-2.037258074E-2,1.118494663E-2,5.991935730E-2
1.200907918E1,-1.504641678E-2,1.118494663E-2,7.163692266E-2
1.201901751E1,-2.782921307E-2,2.663082443E-3,6.950645149E-2
1.202895580E1,-5.232957378E-2,-5.858781748E-3,5.565842614E-2
1.203889475E1,-6.937330216E-2,1.757634431E-2,3.754946589E-2
1.204883304E1,-7.789516449E-2,4.953333735E-2,2.583190054E-2
1.205877137E1,-7.363422960E-2,6.977276504E-2,2.796236612E-2
1.206871246E1,-4.806863889E-2,9.001219273E-2,3.861469775E-2
1.207865074E1,-2.356828004E-2,1.038602218E-1,5.352795869E-2
1.208858908E1,-3.328853287E-3,1.091863886E-1,7.270215452E-2
1.209851350E1,1.264964230E-2,9.107742459E-2,8.655018359E-2
1.210845179E1,3.062544856E-3,7.509893179E-2,8.655018359E-2
1.211839012E1,-2.995967865E-2,7.083799690E-2,7.696308941E-2
1.212834475E1,-6.191666797E-2,6.764229387E-2,6.844121963E-2
1.213828304E1,-8.215609938E-2,7.616416365E-2,6.311506033E-2
1.214822137E1,-9.919982404E-2,9.001219273E-2,6.204982474E-2
1.215814762E1,-1.077216864E-1,9.107742459E-2,7.163692266E-2
1.216808590E1,-1.130478531E-1,6.444659829E-2,8.441971987E-2
1.217802423E1,-1.098521575E-1,4.207670316E-2,9.613727778E-2
1.218796309E1,-9.067796171E-2,5.059856921E-2,1.089200750E-1
1.219790147E1,-8.215609938E-2,6.551183015E-2,1.121157780E-1
1.220783986E1,-8.748225868E-2,7.083799690E-2,1.057243794E-1
1.221775554E1,-1.055912226E-1,7.296846062E-2,9.081111848E-2
1.222769392E1,-1.311568171E-1,7.722939551E-2,8.122401685E-2
1.223763231E1,-1.482005417E-1,9.214265645E-2,8.122401685E-2
1.224758975E1,-1.354177445E-1,1.145125479E-1,9.081111848E-2
1.225752814E1,-1.109173894E-1,1.304910481E-1,9.933298081E-2
1.226746652E1,-8.428656310E-2,1.315562725E-1,1.078548431E-1
1.227737293E1,-7.469946891E-2,1.177082509E-1,1.142462417E-1
1.228731132E1,-8.428656310E-2,9.001219273E-2,1.206376404E-1
1.229724975E1,-9.493889660E-2,7.296846062E-2,1.195724085E-1
1.230722319E1,-1.066564545E-1,6.125089899E-2,1.057243794E-1
1.231716158E1,-1.151783243E-1,4.420717061E-2,8.441971987E-2
1.232709996E1,-1.279611140E-1,2.929390781E-2,6.950645149E-2
1.233701731E1,-1.396786869E-1,1.651111245E-2,6.524552405E-2
1.234695564E1,-1.492657810E-1,-5.326165119E-4,7.696308941E-2
1.235689402E1,-1.577876359E-1,-3.728315700E-3,9.933298081E-2
1.236684798E1,-1.588528752E-1,1.970681176E-2,1.312899739E-1
1.237678637E1,-1.609833390E-1,4.314193875E-2,1.557903290E-1
1.238672475E1,-1.748313755E-1,5.698996782E-2,1.643121988E-1
1.239666366E1,-1.940055639E-1,5.485950038E-2,1.589860320E-1
1.240660205E1,-2.153102309E-1,3.355484083E-2,1.430075318E-1
1.241654043E1,-2.355496585E-1,-2.663082443E-3,1.174419373E-1
1.242646871E1,-2.430062890E-1,-2.290250920E-2,9.400681406E-2
1.243640710E1,-2.334191799E-1,-6.924014539E-3,8.868064731E-2
1.244634543E1,-2.153102309E-1,1.970681176E-2,1.057243794E-1
1.245628585E1,-1.961360276E-1,5.272903293E-2,1.430075318E-1
1.246622418E1,-1.844184697E-1,6.870753318E-2,1.738992929E-1
1.247616257E1,-1.833532304E-1,6.125089899E-2,1.866820902E-1
1.248609736E1,-2.035926580E-1,1.651111245E-2,1.738992929E-1
1.249603574E1,-2.323539555E-1,-3.035914153E-2,1.387466043E-1
1.250597413E1,-2.430062890E-1,-6.870753318E-2,1.014634445E-1
1.251592074E1,-2.238320857E-1,-9.214265645E-2,7.909355313E-2
1.252585913E1,-1.854836941E-1,-9.001219273E-2,8.015878499E-2
1.253579751E1,-1.418091506E-1,-5.379426852E-2,9.933298081E-2
1.254573069E1,-1.119826213E-1,-1.331541315E-2,1.217028722E-1
1.255566908E1,-1.045259908E-1,-1.597849536E-3,1.323551983E-1
1.256560746E1,-1.141130850E-1,-1.331541315E-2,1.291595101E-1
1.257554366E1,-1.418091506E-1,-4.527240247E-2,1.206376404E-1
1.258548199E1,-1.705704331E-1,-7.083799690E-2,1.057243794E-1
1.259542038E1,-1.865489334E-1,-8.681648970E-2,9.613727778E-2
1.260536330E1,-1.908098608E-1,-9.214265645E-2,9.933298081E-2
1.261530168E1,-1.737661362E-1,-8.149032295E-2,1.110505462E-1
1.262524007E1,-1.439396143E-1,-7.403369248E-2,1.163767055E-1
1.263514064E1,-1.268958896E-1,-5.912043154E-2,1.089200750E-1
1.264507902E1,-1.215697154E-1,-2.716344222E-2,9.294158220E-2
1.265501746E1,-1.300915778E-1,-7.989247330E-3,7.376738638E-2
1.266495491E1,-1.492657810E-1,-1.225017942E-2,5.885412544E-2
1.267489330E1,-1.599181145E-1,-2.822867595E-2,5.033225939E-2
1.268483168E1,-1.577876359E-1,-5.166380107E-2,5.139749497E-2
1.269477663E1,-1.556571722E-1,-8.681648970E-2,5.459319428E-2
1.270471486E1,-1.503310055E-1,-1.283605844E-1,5.459319428E-2
1.271465309E1,-1.364829838E-1,-1.486000121E-1,5.352795869E-2
1.272461845E1,-1.215697154E-1,-1.379476786E-1,5.991935730E-2
1.273455668E1,-1.130478531E-1,-1.209039465E-1,7.589785010E-2
1.274449486E1,-1.194392517E-1,-1.027949899E-1,9.507204592E-2
1.275440069E1,-1.386134475E-1,-8.575125784E-2,9.613727778E-2
1.276433892E1,-1.556571722E-1,-8.255556226E-2,7.270215452E-2
1.277427715E1,-1.631138027E-1,-9.320788831E-2,3.754946589E-2
1.278424772E1,-1.524614692E-1,-1.219691783E-1,-7.989247679E-4
1.279418590E1,-1.237001866E-1,-1.486000121E-1,-2.742975019E-2
1.280412413E1,-9.067796171E-2,-1.422086060E-1,-3.062544949E-2
1.281406767E1,-6.511236727E-2,-1.049254537E-1,-1.997311972E-2
1.282400585E1,-4.700340703E-2,-5.166380107E-2,-5.059856921E-3
1.283394408E1,-5.872096866E-2,-5.858781748E-3,8.788172156E-3
1.284387809E1,-1.002650559E-1,2.290250920E-2,2.263620123E-2
1.285381626E1,-1.237001866E-1,5.272903293E-2,4.394086078E-2
1.286375449E1,-1.311568171E-1,8.042509109E-2,7.057169080E-2
1.287368408E1,-1.215697154E-1,8.788172156E-2,8.548495173E-2
1.288362225E1,-9.067796171E-2,8.468602598E-2,8.761541545E-2
1.289356048E1,-4.593817517E-2,8.788172156E-2,6.737598777E-2
1.290347939E1,9.320789250E-4,1.027949899E-1,2.583190054E-2
1.291341757E1,2.649767138E-2,1.262301207E-1,-2.316881903E-2
1.292335580E1,2.862813696E-2,1.379476786E-1,-5.938674137E-2
1.293332481E1,3.395430371E-2,1.464695334E-1,-6.790860742E-2
1.294326304E1,3.928046674E-2,1.528609395E-1,-5.086487532E-2
1.295320121E1,3.395430371E-2,1.219691783E-1,-2.636451647E-2
1.296309965E1,1.797580719E-2,6.125089899E-2,-9.320789017E-3
1.297303788E1,1.371487509E-2,4.793548491E-3,-2.929390874E-3
1.298297611E1,2.010627277E-2,-2.929390781E-2,-8.255556226E-3
1.299292522E1,3.501953557E-2,-3.994623944E-2,-1.677742042E-2
1.300286340E1,4.673709720E-2,-5.485950038E-2,-2.210358530E-2
1.301280163E1,4.780233279E-2,-4.846810177E-2,-2.636451647E-2
1.302273423E1,3.395430371E-2,-2.077204362E-2,-2.636451647E-2
1.303267241E1,-1.331541280E-4,-1.118494663E-2,-2.316881903E-2
1.304261064E1,-2.995967865E-2,-1.970681176E-2,-1.464695390E-2
1.305257215E1,-4.593817517E-2,-4.314193875E-2,3.462007269E-3
1.306251038E1,-4.700340703E-2,-5.592473224E-2,2.157096937E-2
1.307244856E1,-3.102491237E-2,-3.888100386E-2,2.796236612E-2
1.308236470E1,-1.198387123E-3,-1.011971384E-2,2.263620123E-2
1.309230293E1,2.543243766E-2,1.864157803E-2,1.198387146E-2
1.310224116E1,3.501953557E-2,3.781577200E-2,-5.059856921E-3
1.311217012E1,4.247616604E-2,6.018566713E-2,-2.316881903E-2
1.312210835E1,4.780233279E-2,7.190322876E-2,-3.595161438E-2
1.313204658E1,5.738943070E-2,7.509893179E-2,-4.021254554E-2
1.314202038E1,6.804175675E-2,8.681648970E-2,-4.340824485E-2
1.315195856E1,7.443315536E-2,1.070559174E-1,-3.488638252E-2
1.316189679E1,6.910699606E-2,1.240996495E-1,-1.358172111E-2
1.317183038E1,5.419373140E-2,1.379476786E-1,1.198387146E-2
1.318176861E1,2.649767138E-2,1.443390697E-1,3.115806542E-2
1.319170679E1,4.127778113E-3,1.379476786E-1,3.754946589E-2
1.320164538E1,-8.655018173E-3,1.379476786E-1,2.476666868E-2
1.321158366E1,-1.078548469E-2,1.283605844E-1,-1.864157850E-3
1.322152194E1,9.453942999E-3,1.038602218E-1,-2.956021577E-2
1.323143923E1,4.034570232E-2,9.214265645E-2,-5.832150951E-2
1.324137751E1,7.869409025E-2,9.640359133E-2,-8.282186836E-2
1.325131580E1,1.042596847E-1,9.746882319E-2,-1.041265279E-1
1.326126736E1,1.138467789E-1,9.107742459E-2,-1.211702600E-1
1.327120564E1,1.159772426E-1,1.049254537E-1,-1.254311949E-1
1.328114392E1,1.031944528E-1,1.432738453E-1,-1.137136221E-1
1.329106715E1,7.230269164E-2,1.794917583E-1,-8.388710022E-2
1.330100543E1,3.075860441E-2,1.890788674E-1,-3.595161438E-2
1.331094371E1,-2.263620263E-3,1.773612946E-1,9.853405878E-3
1.332090173E1,-1.504641678E-2,1.645784974E-1,4.394086078E-2
1.333084001E1,-1.185071748E-2,1.560566425E-1,5.778888986E-2
1.334077830E1,-1.331541280E-4,1.432738453E-1,4.926702753E-2
1.335071814E1,1.371487509E-2,1.262301207E-1,2.689713426E-2
1.336065642E1,1.797580719E-2,9.320788831E-2,-1.864157850E-3
1.337059470E1,1.997311832E-3,4.527240247E-2,-2.849498391E-2
1.338051725E1,-1.930734888E-2,2.929390781E-2,-3.062544949E-2
1.339045554E1,-3.422060981E-2,4.846810177E-2,-7.190322969E-3
1.340039382E1,-3.954677656E-2,5.592473224E-2,2.370143496E-2
1.341032986E1,-3.422060981E-2,2.503297664E-2,5.352795869E-2
1.342026814E1,-2.463351376E-2,-1.864157803E-2,6.950645149E-2
1.343020642E1,-4.394086078E-3,-4.740286991E-2,6.418029219E-2
1.344014319E1,2.969337068E-2,-6.338136643E-2,4.181039706E-2
1.345008147E1,4.673709720E-2,-8.362079412E-2,1.091863867E-2
1.346001975E1,3.821523488E-2,-1.017297506E-1,-1.571218669E-2
1.346997293E1,1.158440951E-2,-1.027949899E-1,-2.423405088E-2
1.347991121E1,-2.143781446E-2,-1.038602218E-1,-9.320789017E-3
1.348984949E1,-4.274247587E-2,-1.113168523E-1,2.476666868E-2
1.349976595E1,-5.126433820E-2,-1.283605844E-1,5.352795869E-2
1.350970423E1,-5.019910634E-2,-1.507304758E-1,6.311506033E-2
1.351964251E1,-3.848154470E-2,-1.731003672E-1,5.672365800E-2
1.352960100E1,-2.889444493E-2,-1.912093312E-1,4.074516147E-2
1.353953928E1,-3.528584540E-2,-2.167749256E-1,2.050573565E-2
1.354947757E1,-5.019910634E-2,-2.306229472E-1,-7.989247679E-4
1.355938345E1,-6.191666797E-2,-2.242315561E-1,-8.255556226E-3
1.356932179E1,-6.191666797E-2,-1.944050342E-1,-1.864157850E-3
1.357926007E1,-5.659050494E-2,-1.624480337E-1,1.091863867E-2
1.358920126E1,-4.700340703E-2,-1.411433816E-1,2.263620123E-2
1.359913955E1,-2.889444493E-2,-1.294258088E-1,2.370143496E-2
1.360907783E1,-1.398118306E-2,-1.219691783E-1,1.517957076E-2
1.361902616E1,-6.524552125E-3,-1.294258088E-1,2.663082560E-4
1.362896444E1,4.127778113E-3,-1.379476786E-1,-1.464695390E-2
1.363890272E1,1.371487509E-2,-1.166430190E-1,-2.103835158E-2
1.364886064E1,6.258244161E-3,-9.214265645E-2,-1.997311972E-2
1.365879892E1,-1.185071748E-2,-8.788172156E-2,-1.038602181E-2
1.366873720E1,-2.463351376E-2,-8.894696087E-2,-1.864157850E-3
1.367867418E1,-2.463351376E-2,-9.853405505E-2,-5.059856921E-3
1.368861246E1,-9.720250964E-3,-1.166430190E-1,-2.210358530E-2
1.369855074E1,2.010627277E-2,-1.400781423E-1,-4.660394415E-2
1.370846793E1,6.058513001E-2,-1.486000121E-1,-7.323476672E-2
1.371840611E1,1.042596847E-1,-1.294258088E-1,-9.347419441E-2
1.372834423E1,1.340862066E-1,-8.468602598E-2,-9.986559302E-2
1.373829819E1,1.362166703E-1,-2.077204362E-2,-8.708280325E-2
1.374823637E1,1.085206121E-1,2.396774292E-2,-5.725627393E-2
1.375817449E1,7.762885839E-2,3.675054014E-2,-2.636451647E-2
1.376811522E1,6.271559745E-2,2.929390781E-2,-1.358172111E-2
1.377805340E1,7.017222792E-2,-1.331541315E-2,-2.636451647E-2
1.378799152E1,8.934641629E-2,-6.657706201E-2,-6.258244067E-2
1.379791975E1,1.287600398E-1,-1.070559174E-1,-1.083874628E-1
1.380785793E1,1.703041345E-1,-1.432738453E-1,-1.531272531E-1
1.381779606E1,1.884130985E-1,-1.549914032E-1,-1.808233112E-1
1.382774423E1,1.756303012E-1,-1.368824393E-1,-1.754971445E-1
1.383768241E1,1.426080763E-1,-1.038602218E-1,-1.509967744E-1
1.384762054E1,1.170424819E-1,-6.657706201E-2,-1.201050207E-1
1.385753673E1,1.085206121E-1,-7.190322876E-2,-9.773512930E-2
1.386747486E1,1.031944528E-1,-1.358172148E-1,-1.009308323E-1
1.387741304E1,1.106510833E-1,-2.189053893E-1,-1.318225861E-1
1.388734439E1,1.138467789E-1,-2.902759910E-1,-1.701709777E-1
1.389728262E1,1.127815470E-1,-3.201025128E-1,-1.999974996E-1
1.390722074E1,1.298252791E-1,-2.487319112E-1,-1.968017966E-1
1.391715022E1,1.415428370E-1,-1.347519755E-1,-1.595186442E-1
1.392708840E1,1.543256342E-1,-4.953333735E-2,-1.137136221E-1
1.393702658E1,1.521951705E-1,-1.225017942E-2,-8.708280325E-2
1.394700126E1,1.266295761E-1,-6.018566713E-2,-9.880036116E-2
1.395693944E1,1.127815470E-1,-1.358172148E-1,-1.233007237E-1
1.396687757E1,1.276948154E-1,-1.528609395E-1,-1.456706226E-1
1.397679137E1,1.458037645E-1,-1.496652365E-1,-1.520620137E-1
1.398672949E1,1.713693589E-1,-1.198387146E-1,-1.328878254E-1
1.399666767E1,1.948044896E-1,-3.248960897E-2,-1.030612960E-1
1.400660283E1,1.958697289E-1,6.125089899E-2,-8.175663650E-2
1.401654106E1,1.820216924E-1,1.219691783E-1,-8.069140464E-2
1.402647918E1,1.713693589E-1,1.134473160E-1,-1.126483902E-1
1.403643199E1,1.458037645E-1,4.207670316E-2,-1.616491079E-1
1.404637012E1,1.308905035E-1,-6.924014539E-3,-1.989322603E-1
1.405630835E1,1.351514459E-1,-1.118494663E-2,-1.957365721E-1
1.406622408E1,1.649779677E-1,1.970681176E-2,-1.531272531E-1
1.407616220E1,1.990654171E-1,7.083799690E-2,-9.880036116E-2
1.408610038E1,1.894783229E-1,7.083799690E-2,-5.512581021E-2
1.409604080E1,1.671084315E-1,6.231613085E-2,-3.914731368E-2
1.410597902E1,1.404775977E-1,6.444659829E-2,-5.619104207E-2
1.411591715E1,9.360735118E-2,3.035914153E-2,-9.347419441E-2
1.412588267E1,4.567186534E-2,-5.379426852E-2,-1.371487528E-1
1.413582085E1,2.330197208E-2,-1.272953451E-1,-1.776276082E-1
1.414575897E1,2.010627277E-2,-1.581871063E-1,-1.978670359E-1
1.415569663E1,3.715000302E-2,-1.507304758E-1,-1.904104054E-1
1.416563481E1,7.443315536E-2,-1.059906855E-1,-1.637795717E-1
1.417557293E1,1.074553803E-1,-4.527240247E-2,-1.286268830E-1
1.418550871E1,1.276948154E-1,2.663082443E-3,-8.814803511E-2
1.419544689E1,1.159772426E-1,1.757634431E-2,-5.512581021E-2
1.420538501E1,8.508548886E-2,1.544587873E-2,-4.340824485E-2
1.421531137E1,6.165036187E-2,-1.011971384E-2,-5.512581021E-2
1.422524949E1,5.632419512E-2,-8.788172156E-2,-8.282186836E-2
1.423518767E1,7.336792350E-2,-1.443390697E-1,-1.083874628E-1
1.424514210E1,1.085206121E-1,-1.517957002E-1,-1.264964193E-1
1.425508027E1,1.415428370E-1,-1.240996495E-1,-1.392792165E-1
1.426501840E1,1.703041345E-1,-9.320788831E-2,-1.446053833E-1
1.427495298E1,1.916087866E-1,-7.935985923E-2,-1.552577168E-1
1.428489111E1,1.884130985E-1,-8.468602598E-2,-1.765623689E-1
1.429482928E1,1.681736708E-1,-8.575125784E-2,-1.936061084E-1
1.430475934E1,1.553908736E-1,-7.829462737E-2,-1.893451661E-1
1.431469751E1,1.628475040E-1,-6.977276504E-2,-1.605838835E-1
1.432463569E1,1.852173954E-1,-4.846810177E-2,-1.158440933E-1
1.433458132E1,2.033263594E-1,5.326165119E-4,-6.151720881E-2
1.434451949E1,2.001306564E-1,3.781577200E-2,-1.145125460E-2
1.435445762E1,1.734998226E-1,2.290250920E-2,5.592473317E-3
1.436437189E1,1.372819096E-1,-3.035914153E-2,-1.784265228E-2
1.437431007E1,9.893351793E-2,-7.083799690E-2,-6.364767253E-2
1.438424824E1,6.484606117E-2,-9.640359133E-2,-1.062569916E-1
1.439417757E1,5.312849581E-2,-1.017297506E-1,-1.275616586E-1
1.440411574E1,6.910699606E-2,-4.314193875E-2,-1.264964193E-1
1.441405392E1,1.053249165E-1,7.722939551E-2,-1.019960642E-1
1.442403746E1,1.489994675E-1,1.837527007E-1,-6.045197323E-2
1.443397559E1,1.777607650E-1,2.306229472E-1,-2.636451647E-2
1.444391376E1,1.788259894E-1,2.018616647E-1,-9.320789017E-3
1.445383173E1,1.607170254E-1,1.368824393E-1,-1.038602181E-2
1.446376986E1,1.383471340E-1,7.403369248E-2,-2.956021577E-2
1.447370804E1,1.223686412E-1,3.142437339E-2,-4.340824485E-2
1.448364892E1,1.010639817E-1,1.597849536E-3,-4.234301299E-2
1.449358705E1,8.082455397E-2,-2.396774292E-2,-3.062544949E-2
1.450352522E1,6.804175675E-2,-5.805519968E-2,-8.255556226E-3
1.451344001E1,5.099803209E-2,-9.001219273E-2,2.663082560E-4
1.452337819E1,2.223674022E-2,-1.304910481E-1,-1.251648832E-2
1.453331637E1,-6.524552125E-3,-1.762960702E-1,-3.808208182E-2
1.454327392E1,-2.250304818E-2,-2.071878165E-1,-6.258244067E-2
1.455321204E1,-1.504641678E-2,-1.912093312E-1,-7.749570161E-2
1.456315022E1,-1.198387123E-3,-1.443390697E-1,-8.069140464E-2
1.457309293E1,1.797580719E-2,-9.427312016E-2,-6.471290439E-2
1.458303106E1,3.288906813E-2,-5.059856921E-2,-3.595161438E-2
1.459296923E1,3.501953557E-2,-3.035914153E-2,2.663082560E-4
1.460290830E1,2.117150649E-2,-1.438064594E-2,2.796236612E-2
1.461284642E1,6.258244161E-3,1.225017942E-2,3.541899845E-2
1.462278460E1,-5.459319334E-3,5.166380107E-2,3.222329915E-2
1.463269668E1,-2.250304818E-2,1.006645188E-1,1.944050193E-2
1.464263486E1,-3.315537795E-2,1.304910481E-1,4.527240526E-3
1.465257304E1,-3.315537795E-2,1.262301207E-1,-6.125089712E-3
1.466252413E1,-2.569874749E-2,1.155777797E-1,-9.320789017E-3
1.467246225E1,9.453942999E-3,1.315562725E-1,-7.989247679E-4
1.468240043E1,4.354140162E-2,1.486000121E-1,4.527240526E-3
1.469235330E1,4.886756465E-2,1.624480337E-1,2.396774245E-3
1.470229142E1,4.141093418E-2,1.837527007E-1,2.396774245E-3
1.471222960E1,2.543243766E-2,2.018616647E-1,1.517957076E-2
1.472213741E1,1.997311832E-3,1.933397949E-1,4.181039706E-2
1.473207543E1,-1.717688330E-2,1.454043090E-1,6.844121963E-2
1.474201356E1,-3.209014609E-2,9.320788831E-2,8.335448056E-2
1.475197840E1,-3.528584540E-2,4.846810177E-2,8.122401685E-2
1.476191647E1,-3.954677656E-2,5.326165119E-4,5.672365800E-2
1.477185454E1,-5.126433820E-2,-3.888100386E-2,2.583190054E-2
1.478177439E1,-4.806863889E-2,-4.740286991E-2,1.091863867E-2
1.479171246E1,-3.209014609E-2,-1.651111245E-2,1.944050193E-2
1.480165054E1,-2.463351376E-2,1.544587873E-2,4.713656008E-2
1.481157652E1,-1.824211515E-2,2.716344222E-2,8.548495173E-2
1.482151465E1,-2.143781446E-2,3.728315700E-3,1.163767055E-1
1.483145272E1,-3.848154470E-2,-4.740286991E-2,1.227681041E-1
1.484139741E1,-4.913387448E-2,-9.001219273E-2,1.099853069E-1
1.485133548E1,-4.487293959E-2,-7.829462737E-2,8.441971987E-2
1.486127361E1,-3.954677656E-2,-3.462007269E-2,5.565842614E-2
1.487124449E1,-2.995967865E-2,4.793548491E-3,3.861469775E-2
1.488118257E1,-9.720250964E-3,3.462007269E-2,3.648423031E-2
1.489112064E1,8.388710208E-3,7.616416365E-2,4.607132822E-2
1.490103538E1,1.371487509E-2,9.640359133E-2,6.737598777E-2
1.491097340E1,-5.459319334E-3,8.042509109E-2,8.335448056E-2
1.492091152E1,-2.995967865E-2,7.190322876E-2,9.081111848E-2
1.493086147E1,-5.019910634E-2,8.149032295E-2,9.400681406E-2
1.494079954E1,-6.404713541E-2,9.746882319E-2,9.294158220E-2
1.495073762E1,-6.937330216E-2,1.262301207E-1,9.187635034E-2
1.496065199E1,-7.469946891E-2,1.677742004E-1,8.974587917E-2
1.497059007E1,-7.363422960E-2,2.263620198E-1,9.294158220E-2
1.498052819E1,-7.150376588E-2,2.721670270E-1,1.067896113E-1
1.499050152E1,-7.256899774E-2,2.902759910E-1,1.206376404E-1
1.500043960E1,-7.469946891E-2,2.721670270E-1,1.334204376E-1
1.501037767E1,-8.215609938E-2,2.423405200E-1,1.376813650E-1
1.502030465E1,-9.067796171E-2,2.359491140E-1,1.312899739E-1
1.503024267E1,-9.919982404E-2,2.306229472E-1,1.195724085E-1
1.504018080E1,-1.183740199E-1,1.933397949E-1,1.078548431E-1
1.505009054E1,-1.332872808E-1,1.517957002E-1,1.057243794E-1
1.506002866E1,-1.311568171E-1,1.464695334E-1,1.227681041E-1
1.506996673E1,-1.300915778E-1,1.496652365E-1,1.483336985E-1
1.507993902E1,-1.375482082E-1,1.177082509E-1,1.770949960E-1
1.508987710E1,-1.375482082E-1,8.894696087E-2,1.962691844E-1
1.509981517E1,-1.300915778E-1,8.468602598E-2,2.079867423E-1
1.510972538E1,-1.332872808E-1,6.338136643E-2,2.037258148E-1
1.511966345E1,-1.407439113E-1,3.355484083E-2,1.856168509E-1
1.512960158E1,-1.439396143E-1,2.290250920E-2,1.589860320E-1
1.513955288E1,-1.418091506E-1,1.331541315E-2,1.355509013E-1
1.514949090E1,-1.450048387E-1,-9.054481052E-3,1.206376404E-1
1.515942902E1,-1.418091506E-1,-1.970681176E-2,1.217028722E-1
1.516935189E1,-1.364829838E-1,-2.396774292E-2,1.419423074E-1
1.517929001E1,-1.279611140E-1,-2.396774292E-2,1.696383655E-1
1.518922809E1,-1.300915778E-1,-2.609820850E-2,1.888125539E-1
1.519919444E1,-1.471353173E-1,-4.740286991E-2,1.909430176E-1
1.520913251E1,-1.641790420E-1,-6.444659829E-2,1.738992929E-1
1.521907059E1,-1.844184697E-1,-7.296846062E-2,1.472684592E-1
1.522897699E1,-2.195711583E-1,-6.231613085E-2,1.270290315E-1
1.523891507E1,-2.430062890E-1,-5.272903293E-2,1.355509013E-1
1.524885314E1,-2.515281439E-1,-5.912043154E-2,1.664426625E-1
1.525880960E1,-2.579195499E-1,-6.551183015E-2,2.026605755E-1
1.526874767E1,-2.568543255E-1,-4.740286991E-2,2.324871123E-1
1.527868569E1,-2.440715134E-1,-1.757634431E-2,2.474003732E-1
1.528864048E1,-2.419410497E-1,1.597849536E-3,2.420742065E-1
1.529857856E1,-2.430062890E-1,1.011971384E-2,2.250304818E-1
1.530851663E1,-2.344844192E-1,1.331541315E-2,2.005301118E-1
1.531843845E1,-2.206363827E-1,7.989247330E-3,1.728340536E-1
1.532837652E1,-2.025274336E-1,1.011971384E-2,1.451379955E-1
1.533831460E1,-1.822880059E-1,9.054481052E-3,1.259638071E-1
1.534826507E1,-1.609833390E-1,1.651111245E-2,1.206376404E-1
1.535820314E1,-1.418091506E-1,5.592473224E-2,1.312899739E-1
1.536814121E1,-1.343525201E-1,8.894696087E-2,1.515294015E-1
1.537805564E1,-1.471353173E-1,8.681648970E-2,1.696383655E-1
1.538799371E1,-1.769618392E-1,5.805519968E-2,1.781602204E-1
1.539793178E1,-2.110492885E-1,2.396774292E-2,1.675078869E-1
1.540789106E1,-2.334191799E-1,-4.793548491E-3,1.504641622E-1
1.541782913E1,-2.366148829E-1,-2.077204362E-2,1.323551983E-1
1.542776720E1,-2.238320857E-1,-3.248960897E-2,1.185071766E-1
1.543767934E1,-1.972012669E-1,-3.888100386E-2,1.078548431E-1
1.544761741E1,-1.705704331E-1,-3.248960897E-2,9.613727778E-2
1.545755548E1,-1.503310055E-1,-2.929390781E-2,8.655018359E-2
1.546749236E1,-1.418091506E-1,-4.314193875E-2,8.228924870E-2
1.547743043E1,-1.471353173E-1,-4.207670316E-2,7.376738638E-2
1.548736850E1,-1.684399694E-1,-6.231613085E-2,5.352795869E-2
1.549731163E1,-1.940055639E-1,-9.959928691E-2,2.263620123E-2
1.550724970E1,-1.982664913E-1,-1.198387146E-1,-3.994623665E-3
1.551718777E1,-1.769618392E-1,-1.251648813E-1,-1.571218669E-2
1.552713548E1,-1.364829838E-1,-1.070559174E-1,-8.255556226E-3
1.553707356E1,-8.748225868E-2,-7.296846062E-2,1.411433797E-2
1.554701158E1,-5.872096866E-2,-4.846810177E-2,2.902759984E-2
1.555696491E1,-5.126433820E-2,-1.331541315E-2,3.009283356E-2
1.556690298E1,-6.830807030E-2,1.331541315E-2,1.304910425E-2
1.557684106E1,-1.141130850E-1,2.929390781E-2,-1.677742042E-2
1.558678236E1,-1.386134475E-1,4.740286991E-2,-3.914731368E-2
1.559672043E1,-1.258306503E-1,6.444659829E-2,-3.701684624E-2
1.560665850E1,-9.280842543E-2,8.255556226E-2,-2.210358530E-2
1.561657876E1,-4.913387448E-2,9.427312016E-2,-2.929390874E-3
1.562651684E1,3.062544856E-3,1.134473160E-1,3.462007269E-3
1.563645491E1,3.608476743E-2,1.379476786E-1,-1.251648832E-2
1.564638293E1,4.354140162E-2,1.528609395E-1,-4.340824485E-2
1.565632106E1,3.821523488E-2,1.656437367E-1,-7.643046975E-2
1.566625913E1,2.223674022E-2,1.805569977E-1,-9.986559302E-2
1.567620267E1,1.158440951E-2,1.805569977E-1,-1.009308323E-1
1.568614069E1,9.453942999E-3,1.784265339E-1,-7.856093347E-2
1.569607876E1,1.691057347E-2,1.922745556E-1,-4.234301299E-2
1.570604277E1,3.608476743E-2,2.039921284E-1,-3.994623665E-3
1.571598085E1,5.419373140E-2,2.093182951E-1,1.731003635E-2
1.572591892E1,5.525896326E-2,2.210358530E-1,1.624480449E-2
1.573583585E1,3.501953557E-2,2.157096863E-1,-3.994623665E-3
1.574577397E1,8.388710208E-3,1.954702586E-1,-3.062544949E-2
1.575571210E1,-9.720250964E-3,1.656437367E-1,-4.979964346E-2
1.576563048E1,-2.143781446E-2,1.326215118E-1,-5.299534276E-2
1.577556866E1,-2.569874749E-2,1.230344176E-1,-3.914731368E-2
1.578550678E1,-2.143781446E-2,1.038602218E-1,-1.890788600E-2
1.579544538E1,-8.655018173E-3,8.468602598E-2,-9.320789017E-3
1.580538356E1,1.797580719E-2,8.575125784E-2,-1.251648832E-2
1.581532168E1,4.354140162E-2,7.296846062E-2,-3.062544949E-2
1.582527163E1,5.951989442E-2,5.805519968E-2,-5.512581021E-2
1.583520981E1,5.845466256E-2,3.355484083E-2,-6.684337556E-2
1.584514793E1,4.673709720E-2,2.290250920E-2,-5.938674137E-2
1.585508710E1,4.034570232E-2,3.781577200E-2,-3.914731368E-2
1.586502522E1,2.543243766E-2,3.888100386E-2,-1.571218669E-2
1.587496335E1,7.323476952E-3,1.597849536E-3,-5.059856921E-3
1.588491371E1,4.127778113E-3,-4.420717061E-2,-1.864157850E-3
1.589485184E1,1.051917579E-2,-7.935985923E-2,-8.255556226E-3
1.590478996E1,2.543243766E-2,-9.533835202E-2,-1.997311972E-2
1.591469949E1,5.419373140E-2,-8.894696087E-2,-2.742975019E-2
1.592463767E1,7.869409025E-2,-6.125089899E-2,-3.382114694E-2
1.593457580E1,7.975932211E-2,-4.953333735E-2,-4.340824485E-2
1.594451954E1,7.443315536E-2,-5.485950038E-2,-5.406057462E-2
1.595445772E1,7.230269164E-2,-6.125089899E-2,-5.938674137E-2
1.596439585E1,6.804175675E-2,-6.551183015E-2,-5.938674137E-2
1.597435819E1,7.230269164E-2,-6.870753318E-2,-5.193011090E-2
1.598429632E1,7.230269164E-2,-9.001219273E-2,-3.914731368E-2
1.599423444E1,6.484606117E-2,-1.102516204E-1,-3.169068322E-2
1.600414548E1,5.099803209E-2,-1.049254537E-1,-2.636451647E-2
1.601408366E1,3.501953557E-2,-6.764229387E-2,-2.423405088E-2
1.602402179E1,1.264964230E-2,-3.355484083E-2,-2.423405088E-2
1.603399788E1,-7.589785382E-3,-1.225017942E-2,-1.784265228E-2
1.604393600E1,-2.037258074E-2,-1.544587873E-2,-9.320789017E-3
1.605387413E1,-1.611164957E-2,-2.077204362E-2,2.663082560E-4
1.606380804E1,7.323476952E-3,-1.011971384E-2,2.663082560E-4
1.607374616E1,3.288906813E-2,5.326165119E-4,-7.190322969E-3
1.608368428E1,4.780233279E-2,-5.326165119E-4,-1.571218669E-2
1.609361142E1,4.034570232E-2,9.054481052E-3,-2.316881903E-2
1.610354954E1,2.436720580E-2,3.142437339E-2,-2.529928461E-2
1.611348767E1,2.436720580E-2,5.592473224E-2,-1.890788600E-2
1.612341022E1,3.608476743E-2,6.551183015E-2,-1.251648832E-2
1.613334835E1,4.673709720E-2,6.125089899E-2,-6.125089712E-3
1.614328647E1,5.632419512E-2,6.125089899E-2,2.663082560E-4
1.615321850E1,5.951989442E-2,6.444659829E-2,2.663082560E-4
1.616315663E1,5.738943070E-2,7.296846062E-2,-3.994623665E-3
1.617309475E1,3.608476743E-2,7.403369248E-2,-1.571218669E-2
1.618304439E1,9.320789250E-4,4.527240247E-2,-3.169068322E-2
1.619298251E1,-3.422060981E-2,-6.924014539E-3,-4.127778113E-2
1.620292064E1,-5.446003750E-2,-3.035914153E-2,-3.169068322E-2
1.621288048E1,-5.446003750E-2,-9.054481052E-3,-9.320789017E-3
1.622281861E1,-3.741630912E-2,1.651111245E-2,1.731003635E-2
1.623275673E1,-1.824211515E-2,3.248960897E-2,3.754946589E-2
1.624269215E1,-1.198387123E-3,5.272903293E-2,4.926702753E-2
1.625263033E1,7.323476952E-3,6.551183015E-2,4.500609636E-2
1.626256850E1,-6.524552125E-3,5.805519968E-2,2.263620123E-2
1.627247866E1,-3.315537795E-2,2.716344222E-2,2.663082560E-4
1.628241684E1,-5.659050494E-2,6.924014539E-3,-1.038602181E-2
1.629235507E1,-6.298190355E-2,1.225017942E-2,-8.255556226E-3
1.630231371E1,-6.724283099E-2,1.544587873E-2,1.411433797E-2
1.631225189E1,-6.724283099E-2,4.793548491E-3,4.074516147E-2
1.632219007E1,-6.191666797E-2,-1.225017942E-2,6.098458916E-2
1.633213335E1,-5.339480564E-2,-2.290250920E-2,6.524552405E-2
1.634207152E1,-5.126433820E-2,-5.698996782E-2,5.352795869E-2
1.635200970E1,-5.126433820E-2,-8.149032295E-2,3.861469775E-2
1.636191585E1,-5.339480564E-2,-9.001219273E-2,2.689713426E-2
1.637185402E1,-5.446003750E-2,-9.107742459E-2,2.370143496E-2
1.638179225E1,-6.404713541E-2,-9.640359133E-2,2.902759984E-2
1.639177017E1,-7.682993263E-2,-1.091863886E-1,4.394086078E-2
1.640170835E1,-8.535179496E-2,-1.251648813E-1,5.672365800E-2
1.641164652E1,-8.854749799E-2,-1.443390697E-1,6.950645149E-2
1.642157444E1,-9.067796171E-2,-1.656437367E-1,7.057169080E-2
1.643151257E1,-8.428656310E-2,-1.848179251E-1,6.418029219E-2
1.644145080E1,-7.043853402E-2,-1.986659616E-1,5.139749497E-2
1.645135908E1,-5.765573680E-2,-2.231663167E-1,3.328853101E-2
1.646129731E1,-4.593817517E-2,-2.370143533E-1,1.091863867E-2
1.647123548E1,-5.232957378E-2,-2.476666719E-1,-1.864157850E-3
1.648120361E1,-7.363422960E-2,-2.636451721E-1,-1.864157850E-3
1.649114178E1,-9.387365729E-2,-2.774932086E-1,1.624480449E-2
1.650107996E1,-1.055912226E-1,-2.860150635E-1,4.394086078E-2
1.651102512E1,-1.119826213E-1,-2.870802879E-1,5.991935730E-2
1.652096330E1,-1.066564545E-1,-2.924064696E-1,6.098458916E-2
1.653090147E1,-8.854749799E-2,-2.924064696E-1,5.246272683E-2
1.654081882E1,-6.404713541E-2,-2.785584331E-1,3.541899845E-2
1.655075694E1,-4.274247587E-2,-2.583190203E-1,1.624480449E-2
1.656069517E1,-3.102491237E-2,-2.242315561E-1,-1.864157850E-3
1.657061554E1,-2.356828004E-2,-1.752308309E-1,-1.784265228E-2
1.658055371E1,-1.185071748E-2,-1.187734827E-1,-2.529928461E-2
1.659049194E1,-8.655018173E-3,-8.362079412E-2,-2.636451647E-2
1.660043569E1,-6.524552125E-3,-7.616416365E-2,-2.742975019E-2
1.661037392E1,8.388710208E-3,-6.444659829E-2,-2.742975019E-2
1.662031210E1,3.075860441E-2,-4.527240247E-2,-2.742975019E-2
1.663028418E1,5.312849581E-2,-2.183727734E-2,-3.382114694E-2
1.664022236E1,7.443315536E-2,2.663082443E-3,-4.447348043E-2
1.665016054E1,9.147688746E-2,1.970681176E-2,-5.725627393E-2
1.666007038E1,9.893351793E-2,2.290250920E-2,-7.323476672E-2
1.667000861E1,1.106510833E-1,1.438064594E-2,-9.666989744E-2
1.667994679E1,1.255643368E-1,-7.989247330E-3,-1.243659556E-1
1.668990283E1,1.404775977E-1,-4.953333735E-2,-1.573881805E-1
1.669984100E1,1.468690038E-1,-9.214265645E-2,-1.797580719E-1
1.670977918E1,1.596518010E-1,-1.038602218E-1,-1.818885356E-1
1.671968767E1,1.756303012E-1,-8.042509109E-2,-1.637795717E-1
1.672962585E1,1.862826198E-1,-4.527240247E-2,-1.318225861E-1
1.673956408E1,1.862826198E-1,-1.331541315E-2,-1.062569916E-1
1.674949981E1,1.692388952E-1,-5.326165119E-4,-1.083874628E-1
1.675943783E1,1.489994675E-1,-9.054481052E-3,-1.392792165E-1
1.676937590E1,1.340862066E-1,-4.953333735E-2,-1.850842386E-1
1.677933767E1,1.351514459E-1,-1.038602218E-1,-2.244978547E-1
1.678927564E1,1.489994675E-1,-1.240996495E-1,-2.394111156E-1
1.679921371E1,1.660431921E-1,-8.149032295E-2,-2.181064636E-1
1.680914043E1,1.734998226E-1,-1.011971384E-2,-1.712362021E-1
1.681907845E1,1.756303012E-1,3.568530455E-2,-1.179745570E-1
1.682901647E1,1.766955256E-1,4.740286991E-2,-9.240896255E-2
1.683894319E1,1.660431921E-1,3.035914153E-2,-1.073222235E-1
1.684888121E1,1.532603949E-1,-1.651111245E-2,-1.456706226E-1
1.685881929E1,1.628475040E-1,-7.722939551E-2,-1.946713328E-1
1.686876611E1,1.894783229E-1,-1.209039465E-1,-2.362154275E-1
1.687870408E1,2.193048447E-1,-1.272953451E-1,-2.543243766E-1
1.688864215E1,2.384790480E-1,-1.027949899E-1,-2.415415943E-1
1.689858512E1,2.267614752E-1,-5.698996782E-2,-2.053236663E-1
1.690852314E1,1.958697289E-1,9.054481052E-3,-1.563229412E-1
1.691846116E1,1.788259894E-1,6.125089899E-2,-9.986559302E-2
1.692839887E1,1.564560980E-1,5.805519968E-2,-5.832150951E-2
1.693833689E1,1.276948154E-1,1.438064594E-2,-4.979964346E-2
1.694827491E1,1.085206121E-1,-4.207670316E-2,-7.749570161E-2
1.695823376E1,1.063901484E-1,-9.214265645E-2,-1.286268830E-1
1.696817179E1,9.786828607E-2,-1.262301207E-1,-1.744319052E-1
1.697810981E1,9.147688746E-2,-1.177082509E-1,-1.978670359E-1
1.698805293E1,1.010639817E-1,-3.248960897E-2,-1.840189993E-1
1.699799095E1,1.095858440E-1,9.214265645E-2,-1.435401440E-1
1.700792897E1,1.074553803E-1,1.837527007E-1,-1.019960642E-1
1.701784423E1,9.360735118E-2,1.986659616E-1,-7.110430300E-2
1.702778220E1,9.680305421E-2,1.784265339E-1,-5.299534276E-2
1.703772027E1,1.010639817E-1,1.379476786E-1,-4.340824485E-2
1.704767512E1,8.402025700E-2,8.681648970E-2,-4.447348043E-2
1.705761314E1,6.484606117E-2,5.805519968E-2,-4.447348043E-2
1.706755116E1,6.697652489E-2,6.870753318E-2,-4.127778113E-2
1.707748283E1,7.443315536E-2,8.788172156E-2,-4.447348043E-2
1.708742085E1,9.360735118E-2,9.427312016E-2,-5.619104207E-2
1.709735887E1,1.170424819E-1,9.746882319E-2,-6.151720881E-2
1.710728293E1,1.351514459E-1,8.042509109E-2,-5.938674137E-2
1.711722100E1,1.468690038E-1,3.355484083E-2,-6.364767253E-2
1.712715902E1,1.671084315E-1,-2.183727734E-2,-8.388710022E-2
1.713711121E1,1.788259894E-1,-7.616416365E-2,-1.222354919E-1
1.714704918E1,1.798912287E-1,-1.422086060E-1,-1.616491079E-1
1.715698725E1,1.830869317E-1,-1.848179251E-1,-1.808233112E-1
1.716690121E1,1.777607650E-1,-1.869483888E-1,-1.723014414E-1
1.717683923E1,1.596518010E-1,-1.581871063E-1,-1.403444558E-1
1.718677731E1,1.213034093E-1,-1.145125479E-1,-9.453943372E-2
1.719674606E1,6.271559745E-2,-9.320788831E-2,-5.406057462E-2
1.720668408E1,1.051917579E-2,-1.177082509E-1,-3.701684624E-2
1.721662210E1,-1.717688330E-2,-1.656437367E-1,-3.808208182E-2
1.722655007E1,-4.394086078E-3,-1.880136281E-1,-4.340824485E-2
1.723648809E1,3.288906813E-2,-1.475347728E-1,-5.086487532E-2
1.724642611E1,7.549838722E-2,-9.001219273E-2,-5.938674137E-2
1.725638392E1,1.042596847E-1,-2.396774292E-2,-7.749570161E-2
1.726632210E1,1.159772426E-1,5.698996782E-2,-9.240896255E-2
1.727626033E1,1.127815470E-1,1.219691783E-1,-9.880036116E-2
1.728619012E1,9.360735118E-2,1.475347728E-1,-9.773512930E-2
1.729612835E1,7.549838722E-2,1.507304758E-1,-8.814803511E-2
1.730606652E1,7.230269164E-2,1.432738453E-1,-7.003907114E-2
1.731596975E1,6.697652489E-2,1.155777797E-1,-4.979964346E-2
1.732590798E1,6.271559745E-2,9.214265645E-2,-2.636451647E-2
1.733584621E1,7.336792350E-2,7.296846062E-2,-6.125089712E-3
1.734578361E1,8.934641629E-2,5.698996782E-2,-3.994623665E-3
1.735572184E1,9.680305421E-2,2.609820850E-2,-2.210358530E-2
1.736566001E1,9.680305421E-2,-2.290250920E-2,-5.299534276E-2
1.737561111E1,1.010639817E-1,-6.338136643E-2,-8.921326697E-2
1.738554928E1,9.893351793E-2,-8.362079412E-2,-1.083874628E-1
1.739548751E1,9.893351793E-2,-1.049254537E-1,-9.986559302E-2
1.740541173E1,1.266295761E-1,-1.081211492E-1,-6.045197323E-2
1.741534996E1,1.426080763E-1,-9.533835202E-2,-2.929390874E-3
1.742528819E1,1.213034093E-1,-9.107742459E-2,4.607132822E-2
1.743523392E1,9.041165560E-2,-7.935985923E-2,7.483261824E-2
1.744517215E1,6.697652489E-2,-6.125089899E-2,8.228924870E-2
1.745511033E1,3.395430371E-2,-5.379426852E-2,5.991935730E-2
1.746508210E1,-1.198387123E-3,-7.616416365E-2,2.263620123E-2
1.747502027E1,-1.611164957E-2,-1.145125479E-1,2.663082560E-4
1.748495850E1,3.062544856E-3,-1.187734827E-1,-6.125089712E-3
1.749486699E1,4.247616604E-2,-1.134473160E-1,-8.255556226E-3
1.750480522E1,6.910699606E-2,-1.219691783E-1,-2.210358530E-2
1.751474340E1,9.041165560E-2,-1.081211492E-1,-4.127778113E-2
1.752467637E1,9.786828607E-2,-8.362079412E-2,-5.086487532E-2
1.753461460E1,9.041165560E-2,-7.083799690E-2,-5.512581021E-2
1.754455277E1,7.443315536E-2,-4.420717061E-2,-4.234301299E-2
1.755448866E1,4.780233279E-2,-2.822867595E-2,-2.103835158E-2
1.756442689E1,3.608476743E-2,-3.355484083E-2,2.396774245E-3
1.757436512E1,4.567186534E-2,-3.888100386E-2,2.796236612E-2
1.758434293E1,4.993279651E-2,-5.592473224E-2,3.861469775E-2
1.759428111E1,4.780233279E-2,-8.575125784E-2,3.861469775E-2
1.760421934E1,4.247616604E-2,-9.640359133E-2,2.263620123E-2
1.761412210E1,2.649767138E-2,-8.042509109E-2,-1.464695390E-2
1.762406027E1,5.193010904E-3,-7.190322876E-2,-5.512581021E-2
1.763399845E1,-1.824211515E-2,-6.018566713E-2,-8.708280325E-2
1.764396064E1,-3.848154470E-2,-3.568530455E-2,-9.666989744E-2
1.765389887E1,-4.061200842E-2,-2.290250920E-2,-8.175663650E-2
1.766383704E1,-2.569874749E-2,-2.183727734E-2,-5.086487532E-2
1.767373949E1,-1.331541280E-4,-9.054481052E-3,-1.464695390E-2
1.768367772E1,3.182383627E-2,2.077204362E-2,1.624480449E-2
1.769361590E1,4.354140162E-2,3.888100386E-2,3.648423031E-2
1.770356033E1,2.223674022E-2,4.740286991E-2,3.754946589E-2
1.771349856E1,-1.611164957E-2,6.551183015E-2,2.050573565E-2
1.772343673E1,-6.191666797E-2,7.935985923E-2,-1.145125460E-2
1.773341043E1,-1.013302878E-1,6.764229387E-2,-3.914731368E-2
1.774334866E1,-1.119826213E-1,5.912043154E-2,-3.808208182E-2
1.775328684E1,-9.387365729E-2,7.083799690E-2,-7.190322969E-3
1.776318142E1,-5.659050494E-2,7.616416365E-2,3.541899845E-2
1.777311944E1,-1.398118306E-2,9.214265645E-2,7.483261824E-2
1.778305746E1,1.904104091E-2,1.209039465E-1,1.003982127E-1
1.779303434E1,3.501953557E-2,1.507304758E-1,1.057243794E-1
1.780297231E1,3.075860441E-2,1.645784974E-1,9.187635034E-2
1.781291033E1,2.330197208E-2,1.677742004E-1,6.204982474E-2
1.782282892E1,1.691057347E-2,1.592523307E-1,2.796236612E-2
1.783276689E1,-1.331541280E-4,1.262301207E-1,3.462007269E-3
1.784270491E1,-2.037258074E-2,7.190322876E-2,2.663082560E-4
1.785265356E1,-3.102491237E-2,2.929390781E-2,2.157096937E-2
1.786259158E1,-3.422060981E-2,4.793548491E-3,6.204982474E-2
1.787252955E1,-4.061200842E-2,-6.924014539E-3,1.014634445E-1
1.788245694E1,-5.446003750E-2,-9.054481052E-3,1.174419373E-1
1.789239496E1,-7.896039635E-2,-2.077204362E-2,9.613727778E-2
1.790233298E1,-9.813459218E-2,-3.355484083E-2,5.033225939E-2
1.791230095E1,-1.023955271E-1,-3.035914153E-2,8.788172156E-3
1.792223897E1,-8.215609938E-2,-9.054481052E-3,-1.571218669E-2
1.793217694E1,-4.913387448E-2,3.888100386E-2,-1.784265228E-2
1.794210720E1,-1.185071748E-2,9.107742459E-2,5.592473317E-3
1.795204517E1,1.478010789E-2,1.240996495E-1,4.287562892E-2
1.796198286E1,2.117150649E-2,1.379476786E-1,8.761541545E-2
1.797188124E1,9.320789250E-4,1.368824393E-1,1.195724085E-1
1.798181926E1,-4.274247587E-2,1.432738453E-1,1.323551983E-1
1.799175729E1,-9.387365729E-2,1.603175700E-1,1.291595101E-1
1.800173010E1,-1.418091506E-1,1.667089611E-1,1.153114736E-1
1.801166807E1,-1.631138027E-1,1.486000121E-1,1.067896113E-1
1.802160609E1,-1.599181145E-1,1.347519755E-1,1.067896113E-1
1.803154692E1,-1.396786869E-1,1.411433816E-1,1.185071766E-1
1.804148494E1,-1.087869257E-1,1.549914032E-1,1.323551983E-1
1.805142291E1,-7.043853402E-2,1.592523307E-1,1.408770680E-1
1.806135088E1,-4.806863889E-2,1.677742004E-1,1.440727711E-1
1.807128885E1,-4.700340703E-2,1.624480337E-1,1.302247345E-1
1.808122687E1,-6.298190355E-2,1.443390697E-1,1.099853069E-1
1.809117754E1,-9.174319357E-2,1.177082509E-1,9.613727778E-2
1.810111557E1,-1.183740199E-1,9.959928691E-2,9.081111848E-2
1.811105354E1,-1.332872808E-1,9.533835202E-2,9.400681406E-2
1.812098452E1,-1.311568171E-1,1.070559174E-1,1.110505462E-1
1.813092249E1,-1.247654185E-1,1.315562725E-1,1.344856620E-1
1.814086051E1,-1.194392517E-1,1.368824393E-1,1.515294015E-1
1.815079994E1,-1.268958896E-1,1.102516204E-1,1.536598653E-1
1.816073791E1,-1.471353173E-1,8.042509109E-2,1.419423074E-1
1.817067593E1,-1.673747450E-1,5.379426852E-2,1.206376404E-1
1.818060213E1,-1.822880059E-1,3.142437339E-2,8.761541545E-2
1.819054010E1,-1.908098608E-1,1.757634431E-2,5.139749497E-2
1.820047812E1,-1.897446364E-1,2.503297664E-2,3.435376659E-2
1.821041140E1,-1.801575422E-1,4.101147130E-2,4.074516147E-2
1.822034947E1,-1.599181145E-1,5.272903293E-2,6.524552405E-2
1.823028744E1,-1.311568171E-1,5.379426852E-2,1.078548431E-1
1.824021218E1,-1.109173894E-1,4.953333735E-2,1.504641622E-1
1.825015015E1,-1.194392517E-1,4.314193875E-2,1.664426625E-1
1.826008817E1,-1.524614692E-1,3.248960897E-2,1.579207927E-1
1.827006328E1,-1.854836941E-1,1.757634431E-2,1.270290315E-1
1.828000145E1,-2.003969699E-1,-6.924014539E-3,9.613727778E-2
1.828993963E1,-2.067883611E-1,-3.781577200E-2,8.761541545E-2
1.829984958E1,-1.950708032E-1,-1.970681176E-2,1.014634445E-1
1.830978775E1,-1.727008969E-1,2.503297664E-2,1.270290315E-1
1.831972593E1,-1.620485783E-1,5.485950038E-2,1.515294015E-1
1.832969192E1,-1.620485783E-1,7.616416365E-2,1.738992929E-1
1.833963010E1,-1.684399694E-1,1.049254537E-1,1.920082569E-1
1.834956828E1,-1.727008969E-1,1.368824393E-1,2.101172209E-1
1.835947281E1,-1.876141727E-1,1.635132730E-1,2.133129090E-1
1.836941098E1,-2.142449915E-1,1.624480337E-1,1.973344237E-1
1.837934921E1,-2.344844192E-1,1.539261788E-1,1.717688292E-1
1.838929281E1,-2.419410497E-1,1.422086060E-1,1.515294015E-1
1.839923098E1,-2.344844192E-1,1.155777797E-1,1.366161406E-1
1.840916921E1,-2.046578974E-1,1.038602218E-1,1.270290315E-1
1.841911598E1,-1.663095057E-1,1.422086060E-1,1.238333359E-1
1.842905411E1,-1.300915778E-1,1.773612946E-1,1.344856620E-1
1.843899234E1,-1.237001866E-1,1.528609395E-1,1.483336985E-1
1.844894390E1,-1.556571722E-1,1.006645188E-1,1.472684592E-1
1.845888208E1,-2.003969699E-1,3.675054014E-2,1.280942708E-1
1.846882025E1,-2.334191799E-1,-2.503297664E-2,9.720251709E-2
1.847876447E1,-2.600499988E-1,-6.764229387E-2,6.098458916E-2
1.848870265E1,-2.632457018E-1,-9.533835202E-2,3.967992961E-2
1.849864083E1,-2.312887162E-1,-9.853405505E-2,5.565842614E-2
1.850854411E1,-1.897446364E-1,-7.935985923E-2,1.014634445E-1
1.851848234E1,-1.524614692E-1,-4.207670316E-2,1.515294015E-1
1.852842051E1,-1.247654185E-1,-2.077204362E-2,1.717688292E-1
1.853839166E1,-1.258306503E-1,-5.272903293E-2,1.366161406E-1
1.854832984E1,-1.599181145E-1,-1.049254537E-1,6.204982474E-2
1.855826801E1,-1.940055639E-1,-1.517957002E-1,-8.255556226E-3
1.856820312E1,-1.961360276E-1,-1.880136281E-1,-4.021254554E-2
1.857814130E1,-1.556571722E-1,-1.816222370E-1,-2.423405088E-2
1.858807947E1,-8.961272985E-2,-1.517957002E-1,1.198387146E-2
1.859801114E1,-3.209014609E-2,-1.251648813E-1,4.607132822E-2
1.860794932E1,8.388710208E-3,-9.640359133E-2,6.311506033E-2
1.861788749E1,3.928046674E-2,-5.485950038E-2,6.204982474E-2
1.862780562E1,5.099803209E-2,-1.757634431E-2,3.967992961E-2
1.863774380E1,3.288906813E-2,-1.331541315E-2,-7.190322969E-3
1.864768197E1,2.010627277E-2,-1.225017942E-2,-5.406057462E-2
1.865762588E1,1.371487509E-2,-5.858781748E-3,-9.027849883E-2
1.866756400E1,9.453942999E-3,-1.864157803E-2,-1.073222235E-1
1.867750218E1,1.904104091E-2,-3.248960897E-2,-1.019960642E-1
1.868742796E1,3.928046674E-2,-3.248960897E-2,-8.175663650E-2
1.869736619E1,5.099803209E-2,-2.822867595E-2,-4.979964346E-2
1.870730432E1,4.886756465E-2,-1.864157803E-2,-1.358172111E-2
1.871724572E1,4.247616604E-2,4.793548491E-3,1.837527007E-2
1.872718390E1,2.649767138E-2,4.953333735E-2,2.902759984E-2
1.873712213E1,1.158440951E-2,6.977276504E-2,1.731003635E-2
1.874708801E1,6.258244161E-3,6.551183015E-2,-1.145125460E-2
1.875702619E1,1.797580719E-2,6.551183015E-2,-4.340824485E-2
1.876696437E1,3.715000302E-2,7.509893179E-2,-6.790860742E-2
1.877687937E1,5.312849581E-2,1.059906855E-1,-7.536523789E-2
1.878681739E1,5.845466256E-2,1.432738453E-1,-5.938674137E-2
1.879675546E1,4.993279651E-2,1.517957002E-1,-3.062544949E-2
1.880671572E1,2.756290510E-2,1.177082509E-1,2.396774245E-3
1.881665374E1,1.691057347E-2,9.427312016E-2,2.902759984E-2
1.882659182E1,2.010627277E-2,9.959928691E-2,3.754946589E-2
1.883649885E1,3.501953557E-2,1.315562725E-1,2.689713426E-2
1.884643692E1,6.058513001E-2,1.507304758E-1,2.396774245E-3
1.885637499E1,9.360735118E-2,1.368824393E-1,-2.636451647E-2
1.886631718E1,1.181077138E-1,1.155777797E-1,-6.045197323E-2
1.887625520E1,1.319557428E-1,1.081211492E-1,-8.921326697E-2
1.888619328E1,1.223686412E-1,1.049254537E-1,-1.105179265E-1
1.889612723E1,8.828118443E-2,8.575125784E-2,-1.126483902E-1
1.890606531E1,5.632419512E-2,6.231613085E-2,-8.175663650E-2
1.891600338E1,3.395430371E-2,5.805519968E-2,-3.382114694E-2
1.892596911E1,1.797580719E-2,7.722939551E-2,1.731003635E-2
1.893590718E1,2.223674022E-2,8.362079412E-2,5.459319428E-2
1.894584520E1,3.821523488E-2,8.255556226E-2,6.098458916E-2
1.895578739E1,6.058513001E-2,8.362079412E-2,2.902759984E-2
1.896572541E1,9.147688746E-2,6.764229387E-2,-2.210358530E-2
1.897566348E1,1.106510833E-1,7.616416365E-2,-7.430000603E-2
1.898559770E1,9.786828607E-2,7.829462737E-2,-1.147788614E-1
1.899553572E1,6.910699606E-2,6.018566713E-2,-1.286268830E-1
1.900547380E1,4.141093418E-2,6.338136643E-2,-1.115831584E-1
1.901538749E1,2.862813696E-2,1.070559174E-1,-7.003907114E-2
1.902532557E1,1.797580719E-2,1.326215118E-1,-3.169068322E-2
1.903526364E1,1.584534161E-2,1.187734827E-1,-1.864157850E-3
1.904521453E1,2.223674022E-2,9.533835202E-2,1.091863867E-2
1.905515260E1,3.608476743E-2,7.296846062E-2,3.462007269E-3
1.906509062E1,5.951989442E-2,6.018566713E-2,-1.997311972E-2
1.907504562E1,7.656362653E-2,6.338136643E-2,-4.979964346E-2
1.908498364E1,6.697652489E-2,8.149032295E-2,-7.536523789E-2
1.909492171E1,4.141093418E-2,9.427312016E-2,-8.069140464E-2
1.910482421E1,3.501953557E-2,1.091863886E-1,-5.832150951E-2
1.911476228E1,4.141093418E-2,1.347519755E-1,-2.210358530E-2
1.912470036E1,4.886756465E-2,1.368824393E-1,4.527240526E-3
1.913465801E1,7.123745978E-2,1.326215118E-1,1.837527007E-2
1.914459604E1,8.295502514E-2,1.240996495E-1,1.944050193E-2
1.915453411E1,8.508548886E-2,1.059906855E-1,6.657706574E-3
1.916446312E1,8.188978583E-2,7.935985923E-2,-1.358172111E-2
1.917440119E1,7.549838722E-2,5.379426852E-2,-3.914731368E-2
1.918433926E1,6.378082931E-2,4.846810177E-2,-5.512581021E-2
1.919431078E1,4.886756465E-2,4.207670316E-2,-5.299534276E-2
1.920424880E1,3.928046674E-2,3.675054014E-2,-3.382114694E-2
1.921418687E1,3.821523488E-2,3.355484083E-2,-9.320789017E-3
1.922411937E1,4.354140162E-2,3.248960897E-2,1.411433797E-2
1.923405739E1,4.567186534E-2,3.355484083E-2,2.476666868E-2
1.924399546E1,3.821523488E-2,2.396774292E-2,2.370143496E-2
1.925392150E1,2.223674022E-2,6.924014539E-3,1.731003635E-2
1.926385952E1,1.997311832E-3,1.597849536E-3,6.657706574E-3
1.927379760E1,-1.930734888E-2,4.793548491E-3,3.462007269E-3
1.928373531E1,-3.848154470E-2,1.864157803E-2,1.411433797E-2
1.929367338E1,-4.806863889E-2,1.970681176E-2,3.328853101E-2
1.930361150E1,-4.380770773E-2,1.438064594E-2,4.926702753E-2
1.931355718E1,-2.889444493E-2,1.118494663E-2,5.139749497E-2
1.932349525E1,-6.524552125E-3,1.864157803E-2,4.394086078E-2
1.933343338E1,1.691057347E-2,2.609820850E-2,2.583190054E-2
1.934336275E1,2.436720580E-2,1.438064594E-2,-7.989247679E-4
1.935330083E1,1.691057347E-2,-1.225017942E-2,-1.890788600E-2
1.936323895E1,4.127778113E-3,-2.077204362E-2,-1.145125460E-2
1.937317051E1,-1.078548469E-2,-7.989247330E-3,1.091863867E-2
1.938310864E1,-2.889444493E-2,-1.597849536E-3,3.861469775E-2
1.939304671E1,-6.085143611E-2,-1.864157803E-2,5.672365800E-2
1.940299478E1,-8.322133124E-2,-4.953333735E-2,5.991935730E-2
1.941293286E1,-8.002562821E-2,-6.657706201E-2,5.672365800E-2
1.942287104E1,-5.872096866E-2,-7.083799690E-2,4.287562892E-2
1.943278275E1,-3.528584540E-2,-6.338136643E-2,2.370143496E-2
1.944272088E1,-2.356828004E-2,-4.740286991E-2,3.462007269E-3
1.945265900E1,-1.717688330E-2,-6.924014539E-3,-9.320789017E-3
1.946261244E1,-2.356828004E-2,3.142437339E-2,-1.358172111E-2
1.947255051E1,-4.061200842E-2,3.888100386E-2,-7.190322969E-3
1.948248864E1,-5.339480564E-2,2.183727734E-2,6.657706574E-3
1.949241828E1,-5.765573680E-2,-5.858781748E-3,2.263620123E-2
1.950235640E1,-5.446003750E-2,-3.142437339E-2,3.435376659E-2
1.951229452E1,-3.209014609E-2,-5.592473224E-2,4.074516147E-2
1.952222609E1,-8.655018173E-3,-6.870753318E-2,3.328853101E-2
1.953216416E1,1.997311832E-3,-5.059856921E-2,1.517957076E-2
1.954210229E1,-4.394086078E-3,-2.503297664E-2,1.331541222E-3
1.955207515E1,-3.102491237E-2,-1.331541315E-2,-5.059856921E-3
1.956201322E1,-5.339480564E-2,-4.793548491E-3,2.663082560E-4
1.957195135E1,-6.298190355E-2,-1.438064594E-2,1.411433797E-2
1.958186458E1,-6.404713541E-2,-3.248960897E-2,3.115806542E-2
1.959180270E1,-5.019910634E-2,-5.059856921E-2,4.607132822E-2
1.960174083E1,-2.676397935E-2,-5.912043154E-2,5.565842614E-2
1.961169900E1,-2.263620263E-3,-6.444659829E-2,5.033225939E-2
1.962163713E1,8.388710208E-3,-7.403369248E-2,3.009283356E-2
1.963157520E1,3.062544856E-3,-8.042509109E-2,6.657706574E-3
1.964148692E1,-1.078548469E-2,-8.575125784E-2,-1.464695390E-2
1.965142504E1,-2.250304818E-2,-9.107742459E-2,-2.742975019E-2
1.966136317E1,-2.356828004E-2,-1.006645188E-1,-2.956021577E-2
1.967134104E1,-1.291595027E-2,-1.113168523E-1,-3.382114694E-2
1.968127911E1,4.127778113E-3,-1.230344176E-1,-4.021254554E-2
1.969121728E1,2.862813696E-2,-1.283605844E-1,-4.234301299E-2
1.970112171E1,6.058513001E-2,-1.294258088E-1,-4.127778113E-2
1.971105978E1,9.041165560E-2,-1.219691783E-1,-4.340824485E-2
1.972099791E1,1.159772426E-1,-1.145125479E-1,-5.406057462E-2
1.973095093E1,1.255643368E-1,-1.134473160E-1,-7.430000603E-2
1.974088906E1,1.159772426E-1,-1.145125479E-1,-9.453943372E-2
