"Time (s)","Acceleration x (m/s^2)","Acceleration y (m/s^2)","Acceleration z (m/s^2)"
2.427193000E-3,2.422732860E-1,-9.329017639E0,-2.680559635E0
1.241646400E-2,-4.378865361E-1,-7.475177765E0,-9.505487680E-1
2.239521400E-2,5.563312769E-2,-4.691128731E0,1.344168067E0
3.238448500E-2,8.985049129E-1,-2.224128723E0,2.211566210E0
4.236974500E-2,1.909472466E0,-6.287141442E-1,1.258026481E0
5.235901600E-2,1.713261008E0,-1.256231815E-1,-8.374879509E-2
6.223880800E-2,2.853440940E-1,-7.770691514E-1,-2.943171859E-1
7.222813100E-2,-1.152144074E0,-3.105285645E0,2.901297510E-1
8.221740100E-2,-7.543373108E-1,-5.246861935E0,5.084748194E-2
9.205229700E-2,6.592226624E-1,-4.787439823E0,-1.410568953E0
1.020416200E-1,5.922235847E-1,-4.753940582E0,-4.040879250E0
1.120308910E-1,4.049852192E-1,-5.141577721E0,-6.297310829E0
1.218656830E-1,3.714857101E-1,-5.922834396E0,-8.108677864E0
1.318550060E-1,4.671986103E-1,-7.283154011E0,-9.656235695E0
1.418442760E-1,3.332005441E-1,-9.372088432E0,-9.061619759E0
1.516754740E-1,-4.618147612E-1,-1.203111267E1,-6.292525291E0
1.616647970E-1,-1.995015860E0,-1.495394516E1,-3.825525284E0
1.716540680E-1,-3.518645763E0,-1.675035667E1,-1.578066587E0
1.815138600E-1,-4.984847546E0,-1.564367580E1,7.645068169E-1
1.915031310E-1,-6.158527374E0,-1.286979675E1,1.679761529E0
2.014924010E-1,-6.273382664E0,-1.153280735E1,-2.608176768E-1
2.113024530E-1,-5.626722336E0,-1.241934776E1,-3.600001574E0
2.212917760E-1,-4.697110653E0,-1.388076401E1,-4.980062008E0
2.312810470E-1,-3.346362352E0,-1.439821243E1,-2.699702263E0
2.411190680E-1,-1.822732687E0,-1.407697582E1,-7.926225066E-1
2.511083910E-1,-9.122636318E-1,-1.490549088E1,-1.774876237E0
2.610976620E-1,-1.578066587E0,-1.798146439E1,-3.935595036E0
2.709354740E-1,-4.481756687E0,-2.288734818E1,-6.139384747E0
2.809247970E-1,-7.284350395E0,-2.861277580E1,-4.314259052E0
2.909140680E-1,-8.194819450E0,-3.134836960E1,-9.266205430E-1
3.007585990E-1,-6.489335060E0,-2.746302414E1,-1.055832982E0
3.107478700E-1,-3.039483070E0,-2.251885414E1,-3.020340443E0
3.207371410E-1,-5.982056633E-2,-2.043949127E1,-3.772883177E0
3.305764640E-1,1.646261930E0,-1.990290070E1,-4.299902439E0
3.405657350E-1,1.842473388E0,-1.923709679E1,-4.754538536E0
3.505550060E-1,6.783652306E-1,-1.749751472E1,-4.558327198E0
3.603876620E-1,-5.676971674E-1,-1.489113331E1,-4.127020836E0
3.703769330E-1,-1.036690354E0,-1.193061352E1,-3.461217880E0
3.803662030E-1,-8.500502706E-1,-8.663214684E0,-2.316252232E0
3.901802140E-1,-1.195214868E0,-5.836692810E0,-1.861017823E0
4.001695370E-1,-1.458425403E0,-2.803789854E0,-1.200000525E0
4.101588080E-1,-1.060618639E0,-3.074777126E-1,-6.442674994E-1
4.200132350E-1,-4.235295951E-1,1.244866014E0,-4.043870270E-1
4.300025060E-1,-7.417750359E-2,2.178664923E0,-3.661018610E-1
4.399917760E-1,-1.938186288E-1,2.605185747E0,-2.273181528E-1
4.498397970E-1,-8.117650747E-1,2.423331022E0,-7.016952634E-1
4.598290680E-1,-1.899302959E0,1.905883193E0,-1.808375716E0
4.698183390E-1,-2.704487801E0,1.076770186E0,-2.771486759E0
4.796273490E-1,-3.231507063E0,-1.447657645E-1,-2.790629387E0
4.896166720E-1,-3.226721287E0,-1.112662554E0,-2.321038008E0
4.996059430E-1,-2.636890650E0,-1.587039590E0,-2.201396942E0
5.094371930E-1,-1.803590059E0,-1.831107497E0,-2.114656925E0
5.194264640E-1,-1.128215909E0,-1.979462504E0,-1.832303882E0
5.294157350E-1,-5.916253924E-1,-2.012962103E0,-1.448854089E0
5.392597450E-1,-9.810572863E-2,-1.878963947E0,-8.787640929E-1
5.492390160E-1,3.140579760E-1,-1.485942841E0,-1.842473447E-1
5.592182870E-1,5.341976285E-1,-8.488538265E-1,7.740781307E-1
5.690960990E-1,3.571287692E-1,-2.452643216E-1,1.694118381E0
5.790754220E-1,1.734796353E-2,7.597211748E-2,2.048256159E0
5.890546410E-1,-1.507478207E-1,4.157529473E-1,1.847259045E0
5.988745890E-1,-3.326023519E-1,7.226324677E-1,1.401595831E0
6.088538600E-1,-5.964110494E-1,7.369893789E-1,1.022931695E0
6.188331310E-1,-8.452646136E-1,3.822534084E-1,9.224331379E-1
6.287277140E-1,-8.309076428E-1,-2.213360965E-1,8.506484628E-1
6.387069850E-1,-5.096712112E-1,-1.007378340E0,9.415757060E-1
6.486862560E-1,-2.656033039E-1,-1.960319996E0,7.357929349E-1
6.585204220E-1,-2.608176768E-1,-3.622733593E0,-4.953143001E-1
6.684996930E-1,-2.943171859E-1,-6.348756790E0,-2.196611166E0
6.784790160E-1,-1.603191197E-1,-1.120738316E1,-4.222733974E0
6.883210470E-1,-2.033899277E-1,-2.105743790E1,-4.994419098E0
6.983003180E-1,-8.452646136E-1,-3.343251801E1,-3.489931822E0
7.082795890E-1,-3.413361549E0,-3.546402359E1,-3.082553864E0
7.181313080E-1,-3.489931822E0,-2.158924294E1,-4.395615101E0
7.281105780E-1,1.262812138E0,-9.903892517E0,-3.494717360E0
7.380898490E-1,3.773481369E0,-6.157330990E0,-1.085145116E0
7.479810990E-1,1.775474429E0,-1.067557812E1,-1.736590981E0
7.579603700E-1,-2.900699139E0,-1.877229118E1,-4.682754040E0
7.679396410E-1,-8.851051331E0,-2.423390961E1,-7.198208809E0
7.777811510E-1,-1.637288857E1,-2.622234535E1,-5.535795212E0
7.877604220E-1,-1.801615906E1,-2.456950378E1,-2.421536446E0
7.977396930E-1,-9.085547447E0,-2.229811668E1,-3.854238987E0
8.075790160E-1,6.999006122E-2,-2.090908241E1,-4.951348305E0
8.175582870E-1,1.459023595E0,-2.198226357E1,-2.612962246E0
8.275375580E-1,4.001995921E-1,-2.340958214E1,3.284149170E-1
8.373874010E-1,-6.442674994E-1,-2.387917328E1,4.671986103E-1
8.473666720E-1,-2.038086653E0,-2.388395882E1,-5.868397355E-1
8.573459430E-1,-3.149552822E0,-2.310808563E1,-9.218349457E-1
8.672014640E-1,-3.082553864E0,-2.163709831E1,-7.974081635E-1
8.771807350E-1,-2.704487801E0,-1.990768623E1,-8.021938205E-1
8.871600060E-1,-2.819343328E0,-1.831227112E1,-1.266999602E0
8.970346930E-1,-2.455035925E0,-1.644347763E1,-1.472782373E0
9.070139640E-1,-1.961516380E0,-1.480499172E1,-2.263610125E0
9.169932350E-1,-1.128215909E0,-1.261077309E1,-2.641676188E0
9.268649530E-1,-4.713860750E-1,-1.030648518E1,-2.977269650E0
9.368442760E-1,-1.555334777E-1,-7.762316704E0,-2.723630428E0
9.468234950E-1,-1.674975827E-2,-5.280361176E0,-1.999801517E0
9.566584430E-1,7.453642488E-1,-2.961716175E0,-1.420140266E0
9.666377140E-1,2.072184324E0,-1.141376376E0,-9.218349457E-1
9.766170370E-1,3.342175007E0,-2.165504545E-1,-8.835497499E-1
9.864758390E-1,3.835694790E0,-4.947160780E-1,-2.148754835E0
9.964551100E-1,2.575275421E0,-8.536394835E-1,-4.012165546E0
1.006434381E0,6.520441920E-2,-6.765705943E-1,-5.827719688E0
1.016293808E0,-1.410568953E0,-2.033899166E-2,-6.508477688E0
1.026273078E0,-2.426322222E0,-1.064806059E-1,-5.856433392E0
1.036252349E0,-4.429114819E0,3.708875179E-2,-4.548755646E0
1.046117558E0,-6.172883987E0,3.918247223E-1,-3.451646566E0
1.056088651E0,-6.048457623E0,2.099701911E-1,-8.835497499E-1
1.066059797E0,-3.863810301E0,-3.840480447E-1,1.828116536E0
1.075907610E0,-1.722234130E0,-5.330012441E-1,2.613560438E0
1.085878703E0,-1.674975827E-2,-3.218346536E-1,2.666202545E0
1.095849797E0,1.415952802E0,-1.256231815E-1,2.772084951E0
1.105723078E0,2.278565407E0,1.621137410E-1,2.910868645E0
1.115694172E0,2.374278307E0,4.348955154E-1,2.656631231E0
1.125665266E0,1.622333765E0,9.188438654E-1,1.780260086E0
1.135558912E0,5.970092416E-1,1.599003673E0,5.491527915E-1
1.145530058E0,-2.703889608E-1,1.728814363E0,-2.895315289E-1
1.155501151E0,-1.171286702E0,1.244866014E0,-5.192425251E-1
1.165342506E0,-2.143969059E0,5.258227587E-1,-4.474578202E-1
1.175313599E0,-2.723630428E0,-2.069791555E-1,-4.809573591E-1
1.185284693E0,-2.522035122E0,-1.112662554E0,-7.543373108E-1
1.195190006E0,-1.875374794E0,-2.262413740E0,-9.218349457E-1
1.205161151E0,-9.696913958E-1,-3.503092289E0,-4.187439680E-1
1.215132193E0,4.671986103E-1,-5.112864017E0,-4.378865361E-1
1.224983756E0,2.192423820E0,-7.843672752E0,-1.439282775E0
1.234954901E0,4.031906128E0,-1.354517078E1,-2.967698336E0
1.244925995E0,4.966303349E0,-2.353939247E1,-4.965705395E0
1.254799485E0,3.591028690E0,-3.312145233E1,-5.554937840E0
1.264770631E0,-2.680559635E0,-3.060120964E1,-4.634897232E0
1.274741724E0,-9.258428574E0,-1.664028740E1,-1.396211982E0
1.284612245E0,-5.866004944E0,-1.144187927E1,-4.953143001E-1
1.294583391E0,8.171489239E-1,-1.595952892E1,-1.693520188E0
1.304554485E0,-4.761717021E-1,-2.126800537E1,-3.015554667E0
1.314450006E0,-6.829115868E0,-2.641377068E1,-5.870790482E0
1.324421151E0,-1.365165138E1,-3.015076256E1,-7.586444378E0
1.334392245E0,-1.692862129E1,-2.914936638E1,-4.026522160E0
1.344232818E0,-9.751948357E0,-2.446362114E1,1.274178028E-1
1.354203912E0,-1.324427366E0,-1.979761696E1,1.195813060E0
1.364175006E0,1.229312658E0,-1.934238243E1,4.384847581E-1
1.374070943E0,2.254637241E0,-2.076491547E1,1.526022673E0
1.384042089E0,2.149353027E0,-2.113879395E1,2.091326952E0
1.394013183E0,5.970092416E-1,-2.019960976E1,3.810569942E-1
1.403879537E0,-1.065404296E0,-1.880579185E1,-1.266999602E0
1.413850683E0,-1.822732687E0,-1.690828323E1,-1.975873351E0
1.423821724E0,-2.177468538E0,-1.424447346E1,-2.297109842E0
1.433705058E0,-2.536391973E0,-1.135095215E1,-2.153540373E0
1.443676203E0,-2.392822742E0,-8.935996056E0,-1.837089539E0
1.453647297E0,-1.746162295E0,-7.240083218E0,-1.755733609E0
1.463497610E0,-7.782655358E-1,-6.061617851E0,-1.856232166E0
1.473468756E0,1.322034448E-1,-4.878366947E0,-1.856232166E0
1.483439849E0,1.042074203E0,-3.536591768E0,-1.698305845E0
1.493324016E0,2.149353027E0,-2.209771633E0,-1.578066587E0
1.503295110E0,2.915654421E0,-9.349954724E-1,-1.741376638E0
1.513266256E0,2.829512835E0,1.286142170E-1,-2.167897224E0
1.523145787E0,1.549950838E0,8.422735929E-1,-2.824128866E0
1.533116933E0,3.649054468E-2,1.163509965E0,-3.547359467E0
1.543087974E0,-7.830511928E-1,1.340578914E0,-4.189234257E0
1.552965526E0,-1.396211982E0,1.345364571E0,-4.543970108E0
1.562930006E0,-1.731805444E0,9.332008362E-1,-3.988237143E0
1.572894537E0,-1.731805444E0,3.822534084E-1,-2.574677229E0
1.582766360E0,-1.683948994E0,-7.298108935E-2,-9.122636318E-1
1.592730839E0,-1.612164259E0,-3.888336718E-1,2.422732860E-1
1.602695370E0,-1.386640668E0,-4.654040039E-1,7.166503668E-1
1.612560683E0,-1.070788145E0,-5.617151260E-1,9.846464992E-1
1.622525266E0,-9.026923180E-1,-8.009973764E-1,1.372882009E0
1.632489745E0,-7.208378315E-1,-1.079162955E0,2.000399828E0
1.642369641E0,-3.948157430E-1,-1.639681697E0,2.637488842E0
1.652334172E0,-2.656033039E-1,-2.420340061E0,2.273779631E0
1.662298703E0,-3.134597540E-1,-3.838685751E0,4.671986103E-1
1.672187766E0,-2.464607358E-1,-6.905087948E0,-1.314856052E0
1.682152297E0,1.226321608E-1,-1.175833035E1,-3.135195971E0
1.692116828E0,-1.076770201E-1,-1.767996788E1,-6.340381622E0
1.702010578E0,-6.251249313E-1,-2.397010040E1,-7.356134892E0
1.711975058E0,-2.733201742E0,-2.366382027E1,-2.766701221E0
1.721939589E0,-4.165306091E0,-1.573938942E1,2.302493572E0
1.731847037E0,1.734796353E-2,-1.201196957E1,4.046263218E0
1.741811568E0,2.493919373E0,-1.398126316E1,3.342175007E0
1.751776047E0,-1.238285661E0,-1.937109566E1,1.425524116E0
1.761635995E0,-5.626722336E0,-2.898665428E1,-1.980658889E0
1.771600526E0,-7.040282249E0,-3.690629959E1,-1.453639746E0
1.781565058E0,-6.599404812E0,-3.414139175E1,-1.511067510E0
1.791485891E0,-4.280161381E0,-2.534058952E1,-3.509074450E0
1.801450370E0,-5.485545993E-1,-2.231247330E1,-2.364108801E0
1.811414901E0,1.066002488E0,-2.172802544E1,-7.351947427E-1
1.821280578E0,5.198407173E-1,-1.955773544E1,-3.278166950E-1
1.831245058E0,-9.122636318E-1,-1.637169266E1,-5.341976285E-1
1.841209589E0,-2.230110645E0,-1.334417343E1,-7.112665176E-1
1.851098756E0,-2.685345173E0,-1.070429230E1,-7.064808607E-1
1.861063287E0,-2.354537487E0,-8.538787842E0,-7.447660565E-1
1.871027766E0,-1.616949916E0,-6.669992924E0,-8.117650747E-1
1.880918339E0,-7.543373108E-1,-4.743771076E0,-1.046261668E0
1.890882818E0,7.477571070E-2,-2.851646423E0,-1.310070395E0
1.900847349E0,6.209374666E-1,-1.404586911E0,-1.453639746E0
1.910702870E0,4.863412082E-1,-4.995017350E-1,-1.703091502E0
1.920667401E0,-6.059823632E-1,-1.495514214E-1,-2.220539331E0
1.930631933E0,-1.975873351E0,-7.776673883E-2,-2.819343328E0
1.940549120E0,-2.737987280E0,3.343969584E-1,-3.504288673E0
1.950513599E0,-3.154338360E0,8.327022791E-1,-4.088735580E0
1.960478131E0,-3.116053343E0,5.928218365E-1,-3.657429457E0
1.970350891E0,-2.426322222E0,6.101697683E-2,-1.731805444E0
1.980315370E0,-1.233500123E0,-1.064806059E-1,3.170489892E-2
1.990279901E0,-3.661018610E-1,7.118647546E-2,4.863412082E-1
2.000169120E0,2.518445849E-1,2.243271172E-1,7.118647099E-1
2.010133599E0,8.362914920E-1,1.190429255E-1,9.176474810E-1
2.020098131E0,1.353739381E0,-1.351944804E-1,8.315058947E-1
2.029966308E0,1.674975872E0,-2.787638307E-1,5.730810165E-1
2.039930839E0,1.540379524E0,-4.175475538E-1,6.113662124E-1
2.049895318E0,1.056431174E0,-6.478567123E-1,8.506484628E-1
2.059785839E0,7.070791125E-1,-1.012163997E0,8.458628058E-1
2.069745006E0,4.671986103E-1,-1.917249203E0,1.800599098E-1
2.079704120E0,3.714857101E-1,-3.929612875E0,-6.155536175E-1
2.089605474E0,3.954139352E-1,-7.125227451E0,-1.530210137E0
2.099564641E0,2.757728100E-1,-1.152802086E1,-3.518645763E0
2.109523756E0,3.649054468E-2,-1.808674812E1,-3.978665829E0
2.119403235E0,3.858426511E-1,-2.605424881E1,-2.287538528E0
2.129362401E0,9.224331379E-1,-2.741038132E1,-2.153540403E-2
2.139321516E0,-1.109073281E0,-1.916471481E1,8.219345808E-1
2.149215058E0,-1.195214868E0,-1.271605778E1,1.032503009E0
2.159174224E0,-1.316052526E-1,-1.579203129E1,-3.900300860E-1
2.169133339E0,-4.208376884E0,-2.376431847E1,-3.072982550E0
2.179044953E0,-9.354142189E0,-3.123830032E1,-4.865206718E0
2.189004120E0,-1.201316643E1,-3.306342697E1,-3.120838881E0
2.198963235E0,-1.021196842E1,-2.811446953E1,-1.698305845E0
2.208849172E0,-5.324628353E0,-2.396052933E1,-2.359323025E0
2.218808339E0,-1.693520188E0,-2.260499573E1,-4.378865361E-1
2.228767453E0,5.635097623E-1,-2.163709831E1,8.889335990E-1
2.238672558E0,1.114457130E0,-2.050649071E1,9.870393574E-2
2.248631724E0,1.513460279E-1,-1.907378769E1,-1.080359459E0
2.258590839E0,-1.827518344E0,-1.694178200E1,-1.578066587E0
2.268489589E0,-2.938984394E0,-1.421097374E1,-1.310070395E0
2.278448756E0,-2.359323025E0,-1.163809109E1,-8.356932998E-1
2.288407870E0,-1.247856975E0,-9.602396965E0,-6.251249313E-1
2.298292401E0,-3.996013701E-1,-7.968697548E0,-5.485545993E-1
2.308251568E0,-4.067798331E-2,-6.459424496E0,-4.187439680E-1
2.318210683E0,1.752742529E-1,-4.940580368E0,-5.000999570E-1
2.328124068E0,4.959124923E-1,-3.273381472E0,-7.686942816E-1
2.338083235E0,1.032503009E0,-1.677966833E0,-1.133001566E0
2.348042349E0,1.722832322E0,-5.760720372E-1,-1.549352646E0
2.357941881E0,1.578664780E0,2.751746029E-2,-1.889731646E0
2.367901047E0,-2.129612118E-1,6.652047038E-1,-2.752344131E0
2.377860162E0,-1.746162295E0,9.044869542E-1,-3.763311863E0
2.387730735E0,-2.052443504E0,6.795616150E-1,-4.246662140E0
2.397689901E0,-2.268395901E0,4.636093974E-1,-3.921238184E0
2.407649016E0,-2.249253273E0,2.147558331E-1,-2.431107759E0
2.417568287E0,-1.621735573E0,-1.016949639E-1,-8.165507317E-1
2.427527453E0,-5.964110494E-1,-4.031906128E-1,2.231307179E-1
2.437486568E0,4.606183618E-2,-5.330012441E-1,9.942178130E-1
2.447381620E0,3.523431420E-1,-6.478567123E-1,1.411167145E0
2.457340787E0,3.332005441E-1,-7.914260626E-1,1.583450437E0
2.467299901E0,3.170489892E-2,-8.249256015E-1,1.358525038E0
2.477208026E0,-2.177468538E-1,-6.861419082E-1,9.367900491E-1
2.487167193E0,-3.086741269E-1,-4.558327198E-1,5.970092416E-1
2.497126308E0,-3.756731451E-1,-2.500499785E-1,4.241278172E-1
2.506984693E0,-3.086741269E-1,-5.042873621E-1,2.183450609E-1
2.516943860E0,-2.632104978E-2,-1.423729420E0,-5.246263742E-1
2.526902974E0,3.236292601E-1,-3.057429075E0,-2.450250387E0
2.536807714E0,4.671986103E-1,-5.592026711E0,-4.634897232E0
2.546766881E0,3.810569942E-1,-1.011505985E1,-6.541976929E0
2.556725995E0,5.054838061E-1,-1.779482460E1,-6.311667919E0
2.566632506E0,1.348953724E0,-2.686900520E1,-1.319641709E0
2.576587506E0,1.320239902E0,-2.658126831E1,5.014159679E0
2.586542401E0,-9.792626500E-1,-1.573938942E1,4.918447018E0
2.596458443E0,-6.969096065E-1,-8.577073097E0,1.966900229E0
2.606413391E0,9.367900491E-1,-8.854640007E0,2.709871531E-1
2.616368339E0,-2.445464849E0,-1.462792301E1,-2.397608280E0
2.626252506E0,-6.541976929E0,-2.420998192E1,-3.284149170E0
2.636207506E0,-8.300103188E0,-3.302992630E1,-3.533002615E0
2.646162453E0,-1.009172916E1,-3.525764465E1,-2.996412039E0
2.656065474E0,-1.079162979E1,-3.142015457E1,-4.007379532E0
2.666020474E0,-5.981458187E0,-2.734816742E1,-4.060021877E0
2.675975422E0,-8.548358679E-1,-2.537409019E1,-1.650449395E0
2.685869849E0,8.985049129E-1,-2.363510513E1,-3.421736360E-1
2.695824745E0,6.209374666E-1,-2.188176537E1,-1.133001566E0
2.705779693E0,-8.644071817E-1,-1.989332962E1,-2.182254314E0
2.715718443E0,-2.062014818E0,-1.735873222E1,-2.201396942E0
2.725673391E0,-1.803590059E0,-1.469013596E1,-1.746162295E0
2.735628339E0,-1.055832982E0,-1.204068375E1,-1.223928809E0
2.745537297E0,-6.346961856E-1,-9.510871887E0,-6.729813814E-1
2.755492245E0,-6.634100676E-1,-7.302296638E0,-3.948157430E-1
2.765447193E0,-8.883354068E-1,-5.563312531E0,-3.278166950E-1
2.775317818E0,-1.094716311E0,-4.106681824E0,-4.283152521E-1
2.785272818E0,-1.027119160E0,-2.880360365E0,-6.538388133E-1
2.795227766E0,-8.069794178E-1,-1.677966833E0,-9.457631707E-1
2.805154641E0,-5.389832854E-1,-5.330012441E-1,-1.051047325E0
2.815109589E0,-2.321037948E-1,2.434697002E-1,-8.596215248E-1
2.825064537E0,-4.761717021E-1,8.662018180E-1,-7.543373108E-1
2.834938026E0,-1.491924882E0,1.259222865E0,-1.554138303E0
2.844892974E0,-1.923231244E0,1.345364571E0,-2.680559635E0
2.854847870E0,-1.568495274E0,1.273579836E0,-3.480360508E0
2.864760526E0,-8.644071817E-1,7.322037220E-1,-4.016951084E0
2.874715474E0,6.041877344E-2,-1.974078715E-1,-3.768097401E0
2.884670370E0,6.687939167E-1,-9.445667267E-1,-2.690130949E0
2.894597245E0,7.405785918E-1,-1.414158225E0,-1.650449395E0
2.904552193E0,6.209374666E-1,-1.596610904E0,-8.644071817E-1
2.914507141E0,4.432703853E-1,-1.514656782E0,-2.991028428E-1
2.924419068E0,2.374876440E-1,-1.328016520E0,4.606183618E-2
2.934374016E0,-1.124626622E-1,-9.206385016E-1,6.113662124E-1
2.944328964E0,-4.761717021E-1,-5.138586760E-1,1.549950838E0
2.954226099E0,-7.543373108E-1,-3.266202807E-1,1.952543259E0
2.964181047E0,-6.634100676E-1,-2.165504545E-1,1.746760488E0
2.974135995E0,-2.656033039E-1,-1.543370634E-1,1.075573802E0
2.984044068E0,6.999006122E-2,-7.674978375E-1,-4.091726840E-1
2.993999016E0,-1.459621787E-1,-2.837289333E0,-1.803590059E0
3.003953964E0,-1.041476011E0,-6.052046776E0,-2.187039852E0
3.013852401E0,-1.482353687E0,-1.095314598E1,-4.591826439E0
3.023807349E0,-1.774876237E0,-1.959123611E1,-6.043671608E0
3.033762349E0,-1.429711580E0,-3.116172981E1,-2.364108801E0
3.043662297E0,-2.550748825E0,-3.085484886E1,4.051048756E0
3.053617245E0,-3.690928936E0,-1.752622986E1,6.537789822E0
3.063572193E0,3.427718580E-1,-1.108235836E1,3.638885021E0
3.073463287E0,2.757728100E-1,-1.476192093E1,-7.639086246E-1
3.083414797E0,-4.232305050E0,-2.385046005E1,-1.554138303E0
3.093366308E0,-4.649254322E0,-3.238326645E1,-1.760519266E0
3.103275891E0,-4.816751957E0,-3.256033325E1,-2.364108801E0
3.113227453E0,-5.818148136E0,-2.592982292E1,-2.943770170E0
3.123178964E0,-2.895913601E0,-2.262413788E1,-2.297109842E0
3.133110006E0,1.090528965E0,-2.231247330E1,-1.832303882E0
3.143061516E0,2.623131752E0,-2.132064819E1,-2.109871387E0
3.153013026E0,1.818545222E0,-1.898764610E1,-1.660020709E0
3.162896412E0,-2.129612118E-1,-1.621855164E1,-5.772684813E-1
3.172847974E0,-1.626521230E0,-1.382752419E1,-2.416750938E-1
3.182799485E0,-2.187039852E0,-1.174397373E1,8.434699476E-2
3.192736776E0,-2.052443504E0,-9.789037704E0,6.448656917E-1
3.202688287E0,-1.410568953E0,-8.045268059E0,9.224331379E-1
3.212639797E0,-7.351947427E-1,-6.607779503E0,1.143171072E0
3.222566516E0,-1.055832982E0,-6.760920525E0,3.562314749E0
3.232518078E0,-4.426721931E-1,-2.114058733E0,-3.863810301E0
3.242469589E0,1.896311939E-1,-1.811964989E0,3.714857101E-1
3.252373131E0,-7.256234884E-1,-2.123630047E0,2.249851465E0
3.262324641E0,-1.118644595E0,3.535395563E-1,-1.046261668E0
3.272276151E0,-1.022333503E0,1.867598057E0,-5.533402562E-1
3.282156151E0,-1.060618639E0,1.810170293E0,-2.560320199E-1
3.292107714E0,-5.724828243E-1,2.284547329E0,-1.027119160E0
3.302059224E0,4.145565331E-1,2.404188633E0,-1.784447432E0
3.311978183E0,1.439880967E0,1.719243050E0,-2.411965132E0
3.321929693E0,2.000399828E0,6.173482537E-1,-2.905484915E0
3.331881203E0,1.852044702E0,-6.047859192E-1,-3.044268608E0
3.341808756E0,1.262812138E0,-1.840678811E0,-2.843271494E0
3.351760266E0,2.997010350E-1,-2.679363251E0,-2.824128866E0
3.361711776E0,-7.160521746E-1,-3.168097258E0,-3.072982550E0
3.371622506E0,-1.698305845E0,-3.824328899E0,-3.044268608E0
3.381574016E0,-2.632104874E0,-4.671986103E0,-2.498106956E0
3.391525526E0,-3.274577856E0,-5.635097504E0,-1.209571838E0
3.401409641E0,-3.053839922E0,-7.153941631E0,-3.086741269E-1
3.411361203E0,-1.487139225E0,-1.070907784E1,-8.213363886E-1
3.421312714E0,-5.389832854E-1,-1.628555107E1,-2.249253273E0
3.431259328E0,-1.539781332E0,-2.047299004E1,-2.440679073E0
3.441210839E0,-2.555534601E0,-2.048734665E1,-2.225325108E0
3.451162349E0,-4.275375843E0,-1.669292831E1,-4.055236340E0
3.461075422E0,-5.976672649E0,-1.366002655E1,-5.243272781E0
3.471026985E0,-8.228319168E0,-1.272084332E1,-2.139183521E0
3.480978495E0,-8.012366295E0,-1.387597847E1,5.150550604E-1
3.490883860E0,-3.144767046E0,-2.037249184E1,-2.943171859E-1
3.500835370E0,1.847259045E0,-2.795175743E1,-2.886342287E0
3.510786933E0,3.318246841E0,-2.970031357E1,-2.507678032E0
3.520669797E0,1.449452281E0,-2.441097832E1,9.367900491E-1
3.530621360E0,1.506880045E0,-2.076491547E1,2.824727058E0
3.540572870E0,1.794616938E0,-1.965344810E1,2.891726255E0
3.550522297E0,-7.417750359E-2,-2.005125618E1,3.284149170E-1
3.560473808E0,-3.403790236E0,-2.103350830E1,-1.391426325E0
3.570425370E0,-6.101099491E0,-2.037249184E1,-5.916253924E-1
3.580309745E0,-6.129813194E0,-1.810110474E1,-4.713860750E-1
3.590258599E0,-4.352544308E0,-1.527458382E1,-1.439282775E0
3.600207453E0,-2.958127022E0,-1.270170116E1,-1.794018745E0
3.610108912E0,-1.765304923E0,-1.047398281E1,-1.660020709E0
3.620057818E0,-3.804588020E-1,-8.505288124E0,-1.482353687E0
3.630006620E0,8.219345808E-1,-6.617351055E0,-1.295713425E0
3.639939120E0,1.938186288E0,-4.825725079E0,-9.314061999E-1
3.649887974E0,2.772084951E0,-2.937788010E0,-6.011967063E-1
3.659836881E0,3.256033421E0,-1.069591761E0,-4.713860750E-1
3.669740474E0,3.275176048E0,5.784648657E-1,-7.830511928E-1
3.679689328E0,2.359921217E0,1.929811478E0,-1.252642632E0
3.689638183E0,7.788637877E-1,2.672184706E0,-1.966302037E0
3.699584328E0,-3.038884699E-1,2.864208698E0,-2.636890650E0
3.709533235E0,-1.396211982E0,2.495115757E0,-2.364108801E0
3.719482089E0,-2.191825628E0,1.417149186E0,-1.166501045E0
3.729375787E0,-2.085943222E0,1.764706671E-1,-7.178467698E-3
3.739324693E0,-1.348355532E0,-7.914260626E-1,3.044866920E-1
3.749273495E0,-5.868397355E-1,-1.582253933E0,3.284149170E-1
3.759184693E0,-2.081755698E-1,-2.109273195E0,3.906283081E-1
3.769133547E0,-1.124626622E-1,-2.243271112E0,2.662015259E-1
3.779082453E0,-3.086741269E-1,-2.147558212E0,-1.028913707E-1
3.788996412E0,-8.596215248E-1,-1.859821439E0,-5.096712112E-1
3.798945266E0,-1.415354609E0,-1.452443361E0,-7.926225066E-1
3.808894120E0,-1.928016901E0,-1.222732425E0,-8.835497499E-1
3.818828703E0,-2.177468538E0,-1.380658627E0,-7.926225066E-1
3.828777610E0,-2.172683001E0,-2.094916344E0,-1.333998680E0
3.838726464E0,-2.301895380E0,-3.330809116E0,-2.158325911E0
3.848643026E0,-2.340180635E0,-5.127220631E0,-2.545963287E0
3.858591933E0,-1.741376638E0,-8.332406998E0,-3.897309780E0
3.868540787E0,-2.225325108E-1,-1.536072540E1,-6.292525291E0
3.878471099E0,1.253240824E0,-2.652862740E1,-5.846862316E0
3.888419953E0,-8.853443712E-2,-3.131487083E1,-1.755733609E0
3.898368808E0,-5.271986485E0,-2.083729744E1,-8.739784956E-1
3.908255526E0,-7.265207767E0,-8.586644173E0,-2.225325108E-1
3.918204381E0,-3.547359467E0,-6.329614162E0,8.434699476E-2
3.928153235E0,2.709871531E-1,-1.194497108E1,-1.664806366E0
3.938082558E0,-2.991028428E-1,-2.178545380E1,-4.831707001E0
3.948031412E0,-2.843271494E0,-2.896751022E1,-5.387440205E0
3.957980266E0,-6.038886070E0,-2.810968399E1,-2.277967215E0
3.967879693E0,-7.322635651E0,-2.258585358E1,-3.804588020E-1
3.977828599E0,-5.760720730E0,-2.019960976E1,-2.895315289E-1
3.987777401E0,-4.088735580E0,-2.063570213E1,-8.021938205E-1
3.997692662E0,-3.029911757E0,-2.218325996E1,-1.185643673E0
4.007641516E0,-2.943770170E0,-2.284427834E1,-5.389832854E-1
4.017590422E0,-3.375076294E0,-2.180938148E1,-3.948157430E-1
4.027538339E0,-3.681357622E0,-1.951466560E1,-7.543373108E-1
4.037487193E0,-3.537788391E0,-1.680299950E1,-9.649057388E-1
4.047436047E0,-2.752344131E0,-1.424925900E1,-1.252642632E0
4.057355891E0,-1.467996716E0,-1.180618668E1,-1.573280931E0
4.067304745E0,-9.810572863E-2,-9.534799576E0,-1.683948994E0
4.077253599E0,8.506484628E-1,-7.456035137E0,-1.660020709E0
4.087170787E0,1.310668588E0,-5.740381718E0,-1.856232166E0
4.097117558E0,1.224527001E0,-4.207180500E0,-2.018944025E0
4.107064328E0,8.745766878E-1,-2.722434044E0,-1.894517303E0
4.116951672E0,5.778666735E-1,-1.418943882E0,-1.899302959E0
4.126898443E0,7.070791125E-1,-3.074777126E-1,-2.114656925E0
4.136845214E0,9.798609018E-1,5.832505226E-1,-2.483749866E0
4.146767610E0,1.066002488E0,1.335793257E0,-2.948555708E0
4.156714381E0,8.985049129E-1,1.714457393E0,-3.489931822E0
4.166661151E0,5.150550604E-1,1.503290772E0,-3.494717360E0
4.176612453E0,-8.374879509E-2,1.052842021E0,-2.828914642E0
4.186559224E0,-5.048855543E-1,6.843472719E-1,-1.990230203E0
4.196505995E0,-4.283152521E-1,6.580262631E-2,-8.596215248E-1
4.206425578E0,-9.332008660E-2,-6.526423693E-1,7.214360237E-1
4.216372349E0,3.170489892E-2,-9.684949517E-1,1.761117458E0
4.226319120E0,-1.076770201E-1,-8.919246197E-1,1.799402595E0
4.236238756E0,-2.608176768E-1,-6.957131624E-1,1.301097274E0
4.246185526E0,-6.442674994E-1,-4.947160780E-1,1.022931695E0
4.256132297E0,-9.505487680E-1,-4.707878530E-1,1.008574724E0
4.266056933E0,-1.156929731E0,-8.679963946E-1,3.284149170E-1
4.276003703E0,-1.803590059E0,-2.267199516E0,-4.570291340E-1
4.285950474E0,-2.824128866E0,-5.151148796E0,-1.238285661E0
4.295850526E0,-2.737987280E0,-1.059362411E1,-3.053839922E0
4.305797297E0,-1.472782373E0,-1.865205193E1,-2.660818815E0
4.315744068E0,-6.586244106E-1,-2.817668343E1,-2.881556749E0
4.325649276E0,-1.362712502E0,-3.120479965E1,-2.709273338E0
4.335596047E0,-4.390829563E0,-2.270070839E1,-1.621735573E0
4.345542818E0,-4.644468784E0,-1.487199116E1,-1.789233088E0
4.355475787E0,-2.929413080E0,-1.716252136E1,-3.389433384E0
4.365422558E0,-5.621936798E0,-2.605903435E1,-5.435296535E0
4.375369328E0,-8.252246857E0,-3.072563744E1,-2.411965132E0
4.385291568E0,-6.101099491E0,-2.619363213E1,3.619144261E-1
4.395238339E0,-5.964110494E-1,-2.097129631E1,-9.744769931E-1
4.405185110E0,4.051048756E0,-1.874836349E1,-1.467996716E0
4.415116151E0,6.250052929E0,-1.742094612E1,2.183450609E-1
4.425062922E0,5.569892883E0,-1.632862091E1,1.277169108E0
4.435009693E0,2.240280151E0,-1.568674660E1,4.289134443E-1
4.444944641E0,-2.196611166E0,-1.579203129E1,-5.096712112E-1
4.454891412E0,-5.900102615E0,-1.577288914E1,-4.570291340E-1
4.464838183E0,-8.137392044E0,-1.433061504E1,-7.417750359E-2
4.474721256E0,-8.879764557E0,-1.177268696E1,-1.698904037E-1
4.484668026E0,-7.150352478E0,-9.717252731E0,-5.629115105E-1
4.494614797E0,-4.179663181E0,-8.155337334E0,-1.123430252E0
4.504567610E0,-1.904088616E0,-6.406782627E0,-1.717448473E0
4.514514381E0,-1.411765367E-1,-4.978865623E0,-2.014158487E0
4.524461151E0,1.277169108E0,-3.723830223E0,-1.932802439E0
4.534354016E0,2.355135679E0,-2.563909531E0,-1.875374794E0
4.544300787E0,2.958725214E0,-1.399801254E0,-2.148754835E0
4.554247558E0,2.853441000E0,-2.309073806E-1,-2.690130949E0
4.564202766E0,2.048256159E0,7.417750359E-1,-3.245863914E0
4.574149537E0,1.147956610E0,1.488933921E0,-3.969094515E0
4.584096308E0,4.863412082E-1,1.771885157E0,-4.529613495E0
4.594003078E0,-1.268195957E-1,1.838884234E0,-4.222733974E0
4.603948078E0,-7.830511928E-1,1.843669891E0,-2.728415966E0
4.613893078E0,-1.491924882E0,1.603789330E0,-8.261220455E-1
4.623805110E0,-2.081157446E0,1.182652593E0,2.470589429E-1
4.633750110E0,-2.311466694E0,6.412764788E-1,8.315058947E-1
4.643695110E0,-2.359323025E0,-5.982056726E-3,1.492523074E0
4.653644901E0,-2.349751949E0,-8.632107973E-1,2.450848579E0
4.663589901E0,-2.124228239E0,-1.706680775E0,2.944368362E0
4.673534901E0,-1.727019787E0,-2.219342947E0,1.861616015E0
4.683453860E0,-1.506281853E0,-2.990430117E0,-2.656033039E-1
4.693398860E0,-1.621735573E0,-4.691128731E0,-1.928016901E0
4.703343860E0,-1.472782373E0,-7.738388538E0,-2.761915445E0
4.713242245E0,-1.573280931E0,-1.233320618E1,-4.265804768E0
4.723187245E0,-2.109871387E0,-1.846541214E1,-6.905686378E0
4.733132245E0,-2.330609322E0,-2.436312103E1,-7.135995388E0
4.743054276E0,-3.676572084E0,-2.319901466E1,-3.322434187E0
4.752999276E0,-4.299902439E0,-1.548096466E1,2.374876440E-1
4.762944276E0,-4.666004181E-1,-1.135573769E1,3.260818958E0
4.772894224E0,1.569093466E0,-1.151366425E1,1.535593987E0
4.782839224E0,-4.283152521E-1,-1.414875984E1,-3.308077335E0
4.792784224E0,-5.190630436E0,-2.239861488E1,-6.388238430E0
4.802685006E0,-7.706085205E0,-3.028475952E1,-4.711467743E0
4.812630006E0,-4.429114819E0,-2.975295448E1,-1.554138303E0
4.822575006E0,-1.612164259E0,-2.232682991E1,-2.426322222E0
4.832508495E0,-1.176072359E0,-1.867179298E1,-1.985444546E0
4.842453495E0,-1.195214868E0,-1.901635933E1,-5.024927482E-2
4.852398495E0,-2.502892494E0,-2.013739777E1,7.597211599E-1
4.862333131E0,-4.524827480E0,-2.083251190E1,1.752742529E-1
4.872278131E0,-5.607579708E0,-2.008475494E1,-6.825526357E-1
4.882223131E0,-5.511867046E0,-1.774218178E1,-1.305284739E0
4.892120839E0,-4.893920422E0,-1.484806252E1,-1.760519266E0
4.902065839E0,-3.657429457E0,-1.241934776E1,-1.631306887E0
4.912010839E0,-2.182254314E0,-1.073300552E1,-1.472782373E0
4.921936724E0,-1.075573802E0,-9.147162437E0,-1.688734531E0
4.931881724E0,-4.235295951E-1,-7.451249599E0,-2.316252232E0
4.941826724E0,8.434699476E-2,-5.807380676E0,-2.919841766E0
4.951784797E0,6.400800347E-1,-4.384847641E0,-3.308077335E0
4.961729797E0,1.147956610E0,-3.129213810E0,-3.537788391E0
4.971674797E0,1.569093466E0,-2.075773716E0,-3.623929977E0
4.981582870E0,1.785045743E0,-1.098305583E0,-3.571287870E0
4.991527870E0,1.401595831E0,-1.016949639E-1,-3.671786308E0
5.001472870E0,3.667000830E-1,7.704889178E-1,-4.347758770E0
5.011380110E0,-5.676971674E-1,1.508076429E0,-4.285545349E0
5.021325110E0,-1.534995675E0,1.982453585E0,-3.542573929E0
5.031270110E0,-2.273181438E0,1.910668850E0,-2.354537487E0
5.041229901E0,-2.071586132E0,1.599003673E0,-1.118644595E0
5.051174901E0,-1.214357495E0,1.302293777E0,-4.187439680E-1
5.061119901E0,-3.900300860E-1,8.135597110E-1,1.256231871E-2
5.071011776E0,6.041877344E-2,3.343969584E-1,8.554341197E-1
5.080956776E0,3.092723191E-1,-1.399801224E-1,1.966900229E0
5.090901776E0,2.757728100E-1,-6.430711150E-1,2.441277266E0
5.100849328E0,1.734796353E-2,-9.589236975E-1,2.316850424E0
5.110792974E0,-3.708875179E-1,-1.304088354E0,1.597807288E0
5.120736620E0,-5.240281820E-1,-1.922034740E0,8.027920127E-1
5.130643912E0,-5.240281820E-1,-2.990430117E0,1.609173268E-1
5.140587558E0,-8.835497499E-1,-4.797011375E0,-9.505487680E-1
5.150531203E0,-1.636092424E0,-7.738388538E0,-3.442075491E0
5.160457401E0,-3.149552822E0,-1.307557964E1,-6.637690067E0
5.170401047E0,-5.037489891E0,-2.199183464E1,-5.440082073E0
5.180344693E0,-5.185844898E0,-2.880898666E1,-1.607378602E0
5.190297610E0,-5.794219971E0,-2.478007126E1,5.730810165E-1
5.200241256E0,-5.142774105E0,-1.519322777E1,3.954139352E-1
5.210184901E0,-6.939185411E-2,-1.249113274E1,-8.117650747E-1
5.220099797E0,1.387238979E0,-1.639562035E1,-2.344966173E0
5.230043443E0,-1.760519266E0,-2.472742844E1,-3.993022680E0
5.239987089E0,-4.749752998E0,-2.999283600E1,-3.638286829E0
5.249926724E0,-5.554937840E0,-2.859841728E1,-3.269792080E0
5.259870370E0,-2.833700180E0,-2.446840668E1,-4.217947960E0
5.269814016E0,1.800599098E-1,-2.178545380E1,-3.202793121E0
5.279740943E0,5.635097623E-1,-2.063570213E1,-1.209571838E0
5.289684589E0,-1.195214868E0,-2.084208298E1,-1.046261668E0
5.299628183E0,-4.208376884E0,-2.150310135E1,-1.631306887E0
5.309531620E0,-6.675975323E0,-2.127279091E1,-1.923231244E0
5.319475266E0,-7.040282249E0,-1.936152458E1,-2.163111687E0
5.329418912E0,-6.153741837E0,-1.629512215E1,-2.608176708E0
5.339348964E0,-4.405186653E0,-1.354517078E1,-2.569891453E0
5.349292610E0,-2.042872429E0,-1.153280735E1,-2.009372711E0
5.359236256E0,-4.235295951E-1,-9.539586067E0,-1.410568953E0
5.369147974E0,1.848455518E-1,-7.484749317E0,-1.176072359E0
5.379091620E0,3.762713671E-1,-5.860620975E0,-1.252642632E0
5.389035266E0,4.336991012E-1,-4.609772682E0,-1.314856052E0
5.398967089E0,3.906283081E-1,-3.292523861E0,-1.314856052E0
5.408910735E0,2.327020019E-1,-1.783251047E0,-1.467996716E0
5.418854381E0,2.709871531E-1,-3.984049559E-1,-1.544566989E0
5.428783495E0,2.327020019E-1,7.226324677E-1,-1.180858016E0
5.438727141E0,-2.321037948E-1,1.810170293E0,-6.299105883E-1
5.448670787E0,-1.152144074E0,2.519043922E0,-9.601200819E-1
5.458635006E0,-2.062014818E0,2.662613392E0,-2.038086653E0
5.468578651E0,-2.871985435E0,2.432902336E0,-2.929413080E0
5.478522297E0,-3.303291559E0,1.872383714E0,-3.351148129E0
5.488441776E0,-3.020340443E0,8.135597110E-1,-2.804986238E0
5.498385422E0,-2.277967215E0,-2.644068897E-1,-1.310070395E0
5.508329016E0,-1.612164259E0,-9.302098155E-1,2.691925503E-2
5.518258287E0,-1.180858016E0,-1.366301775E0,7.022934556E-1
5.528201933E0,-7.686942816E-1,-1.606182218E0,9.080761671E-1
5.538145526E0,-2.416750938E-1,-1.644467354E0,6.592226624E-1
5.548037401E0,3.571287692E-1,-1.572682738E0,1.369891018E-1
5.557981047E0,8.937192559E-1,-1.399801254E0,-5.982056633E-2
5.567924693E0,1.420738459E0,-1.208375454E0,3.475574851E-1
5.577875318E0,1.895115495E0,-1.088734269E0,6.113662124E-1
5.587818964E0,2.029113531E0,-1.155733347E0,-4.905286431E-1
5.597762610E0,1.823330879E0,-1.922034740E0,-2.824128866E0
5.607702974E0,1.095314622E0,-3.862613916E0,-4.323830605E0
5.617645578E0,6.999006122E-2,-7.613961697E0,-4.582255363E0
5.627588131E0,-9.409775138E-1,-1.480020618E1,-4.749752998E0
5.637521933E0,-2.474178553E0,-2.669672203E1,-3.638286829E0
5.647464485E0,-4.362115860E0,-3.252204895E1,9.032905698E-1
5.657407089E0,-8.002795219E0,-2.245185471E1,3.519243956E0
5.667298183E0,-6.388238430E0,-1.236192036E1,-1.688734531E0
5.677240735E0,4.193421602E-1,-1.339681530E1,-4.850849628E0
5.687183339E0,6.831508875E-1,-2.026182365E1,-3.509074450E0
5.697130214E0,-2.737987280E0,-2.850749016E1,-4.055236340E0
5.707072766E0,-7.346563816E0,-2.937488937E1,-3.413361549E0
5.717015318E0,-9.100502968E0,-2.595375061E1,-1.491924882E0
5.726956464E0,-7.054639339E0,-2.340958214E1,-1.558923960E0
5.736899068E0,-5.075775146E0,-2.302672958E1,-2.986840963E0
5.746841568E0,-4.759324074E0,-2.412384033E1,-2.977269650E0
5.756747922E0,-5.377869129E0,-2.460300255E1,-1.544566989E0
5.766690422E0,-6.513263226E0,-2.333779716E1,-1.491924882E0
5.776633026E0,-6.824330330E0,-2.104308128E1,-2.287538528E0
5.786586933E0,-5.492724419E0,-1.848933983E1,-2.258824587E0
5.796529537E0,-4.016951084E0,-1.553360653E1,-2.287538528E0
5.806472089E0,-2.574677229E0,-1.257248878E1,-1.798804402E0
5.816380370E0,-1.133001566E0,-9.942177773E0,-1.113858938E0
5.826322870E0,-3.589234129E-2,-7.456035137E0,-6.442674994E-1
5.836265474E0,6.305087805E-1,-5.232504845E0,-2.847459018E-1
5.846205318E0,1.248455167E0,-3.383451223E0,-9.810572863E-2
5.856147922E0,1.502094388E0,-1.754537225E0,-5.024927482E-2
5.866090422E0,1.348953724E0,-3.888336718E-1,-2.632104978E-2
5.875997922E0,1.042074203E0,5.688936114E-1,-2.321037948E-1
5.885940474E0,5.006981492E-1,1.244866014E0,-5.964110494E-1
5.895883078E0,-3.421736360E-1,1.455434322E0,-1.444068432E0
5.905811568E0,-8.213363886E-1,9.044869542E-1,-2.206182480E0
5.915754120E0,-9.122636318E-1,-2.991028316E-2,-1.961516380E0
5.925696724E0,-1.128215909E0,-6.526423693E-1,-1.525424480E0
5.935646881E0,-7.208378315E-1,-8.153542876E-1,-1.027119160E0
5.945589381E0,-2.392822644E-3,-1.026520967E0,-3.948157430E-1
5.955531985E0,3.379862010E-1,-1.299302697E0,1.734796353E-2
5.965471203E0,3.092723191E-1,-1.514656782E0,3.170489892E-2
5.975413808E0,-8.853443712E-2,-1.509871125E0,-4.546362907E-2
5.985356360E0,-6.346961856E-1,-1.328016520E0,-1.411765367E-1
5.995254120E0,-1.118644595E0,-1.117448211E0,-5.868397355E-1
6.005196672E0,-1.453639746E0,-1.026520967E0,-1.367498159E0
6.015139276E0,-1.650449395E0,-1.036092162E0,-2.095514536E0
6.025092245E0,-1.846660852E0,-1.198804140E0,-2.239681959E0
6.035034745E0,-1.942373753E0,-1.337587833E0,-1.612164259E0
6.044977349E0,-1.573280931E0,-1.582253933E0,-5.096712112E-1
6.054890839E0,-6.825526357E-1,-2.027318954E0,-2.225325108E-1
6.064833339E0,-2.392822644E-3,-3.052643538E0,-1.319641709E0
6.074775943E0,2.183450609E-1,-5.663811207E0,-1.985444546E0
6.084695474E0,3.571287692E-1,-1.040698433E1,-2.440679073E0
6.094638078E0,-6.939185411E-2,-1.756929970E1,-3.101696253E0
6.104580631E0,-1.343569875E0,-2.614039040E1,-1.525424480E0
6.114549172E0,-6.211169243E0,-2.576232529E1,2.221137524E0
6.124490891E0,-1.102612686E1,-1.494437408E1,1.799402595E0
6.134432558E0,-5.569294930E0,-1.012941647E1,-2.440679073E0
6.144321099E0,3.078366280E0,-1.270648670E1,-3.485146284E0
6.154262766E0,4.199403763E0,-1.719123459E1,-8.452646136E-1
6.164204433E0,4.480560422E-1,-2.075534439E1,5.006981492E-1
6.174169485E0,-3.504288673E0,-2.255235291E1,-1.746162295E0
6.184111151E0,-5.789434433E0,-2.251885414E1,-2.254039049E0
6.194052870E0,-5.171487808E0,-2.038206291E1,-1.295713425E0
6.203973912E0,-3.437289715E0,-1.785225105E1,-8.452646136E-1
6.213915631E0,-2.512463808E0,-1.800539207E1,-1.066002488E0
6.223857297E0,-2.814557552E0,-2.040599060E1,-1.698305845E0
6.233795006E0,-4.093521118E0,-2.239382935E1,-1.928016901E0
6.243736672E0,-4.989633560E0,-2.228854561E1,-1.808375716E0
6.253678391E0,-4.658825874E0,-2.003689957E1,-1.995015860E0
6.263591568E0,-2.785843849E0,-1.726301956E1,-1.712662816E0
6.273533287E0,-6.251249313E-1,-1.502094460E1,-1.118644595E0
6.283474953E0,1.281954765E0,-1.304686546E1,-6.873382926E-1
6.293428443E0,2.513062000E0,-1.098185921E1,-3.182454109E-1
6.303370110E0,2.824727058E0,-8.892925262E0,-1.674975827E-2
6.313311828E0,2.546561480E0,-6.919445038E0,2.231307179E-1
6.323236047E0,1.612762451E0,-4.840082169E0,6.592226624E-1
6.333177766E0,6.305087805E-1,-2.650649309E0,7.597211599E-1
6.343119433E0,5.395814776E-1,-6.765705943E-1,9.128618240E-1
6.353017141E0,-1.271785259E0,1.321436286E0,1.789831281E0
6.362958808E0,-2.785843849E0,2.643470764E0,1.684547186E0
6.372900474E0,-3.935595036E0,3.458226919E0,9.511470199E-1
6.382846933E0,-4.725824833E0,3.348157167E0,5.682953596E-1
6.392788651E0,-5.013561726E0,2.519043922E0,8.889335990E-1
6.402730318E0,-4.697110653E0,1.881955028E0,1.315454245E0
6.412669433E0,-2.723630428E0,7.848458290E-1,1.262812138E0
6.422611151E0,-2.177468538E-1,-7.196413875E-1,6.209374666E-1
6.432552818E0,1.435095429E0,-2.104487419E0,-3.661018610E-1
6.442477974E0,2.316850424E0,-3.067000389E0,-1.760519266E0
6.452419693E0,2.695514679E0,-3.809971809E0,-3.590430260E0
6.462361412E0,3.154936552E0,-4.274777889E0,-5.808577061E0
6.472284224E0,3.313461065E0,-4.830510616E0,-8.007580757E0
6.482225891E0,2.541775942E0,-6.425925255E0,-8.462815285E0
6.492167558E0,1.191027522E0,-9.458230019E0,-6.244668961E0
6.502111516E0,-1.794617027E-1,-1.411526108E1,-3.489931822E0
6.512053235E0,-1.837089539E0,-1.834577179E1,-1.563709617E0
6.521994901E0,-2.938984394E0,-1.946680832E1,-1.147358418E0
6.531938495E0,-4.184448719E0,-1.654936028E1,-1.252642632E0
6.541880162E0,-4.841278553E0,-1.253898907E1,7.788637877E-1
6.551821881E0,-4.386044025E0,-1.055055332E1,1.502094388E0
6.561747401E0,-4.874777794E0,-1.179183006E1,-1.746162295E0
6.571689068E0,-7.202994347E0,-1.774696732E1,-4.481756687E0
6.581630735E0,-8.721838951E0,-2.513480759E1,-4.217947960E0
6.591558860E0,-5.846862316E0,-2.742952347E1,-2.047657967E0
6.601500578E0,-2.800200701E0,-2.345265388E1,-3.948157430E-1
6.611442245E0,-1.515853167E0,-1.945245171E1,8.506484628E-1
6.621382922E0,-5.581258535E-1,-1.736830330E1,1.852044702E0
6.631324589E0,-3.326023519E-1,-1.691306877E1,1.205384374E0
6.641266256E0,-1.257428288E0,-1.811067581E1,-7.734799385E-1
6.651196360E0,-3.561716557E0,-1.956252098E1,-2.033301115E0
6.661138026E0,-4.217947960E0,-1.995075607E1,-2.057229280E0
6.671079745E0,-3.394218922E0,-1.840798378E1,-1.794018745E0
6.680983287E0,-2.018944025E0,-1.549532127E1,-1.487139225E0
6.690924953E0,-8.739784956E-1,-1.265863037E1,-1.482353687E0
6.700866620E0,-4.618147612E-1,-1.054098225E1,-1.563709617E0
6.710802401E0,-5.000999570E-1,-8.644071579E0,-1.094716311E0
6.720744120E0,-6.681957245E-1,-6.617351055E0,-7.447660565E-1
6.730685787E0,-5.724828243E-1,-4.609772682E0,-6.586244106E-1
6.740630110E0,-1.794617027E-1,-2.501696110E0,-6.921239495E-1
6.750571776E0,1.417747438E-1,-5.090730190E-1,-5.437689424E-1
6.760513443E0,3.475574851E-1,1.057627559E0,-3.326023519E-1
6.770457037E0,3.762713671E-1,2.332403898E0,-4.713860750E-1
6.780398703E0,4.145565331E-1,3.357728481E0,-1.066002488E0
6.790340422E0,3.858426511E-1,4.061816216E0,-1.463211060E0
6.800269797E0,-1.459621787E-1,3.616153240E0,-1.257428288E0
6.810211516E0,-1.123430252E0,2.063809633E0,-8.069794178E-1
6.820153183E0,-1.607378602E0,3.296113312E-1,-5.964110494E-1
6.830058339E0,-1.386640668E0,-8.584251404E-1,-6.586244106E-1
6.840000058E0,-8.309076428E-1,-1.816750646E0,-8.691928387E-1
6.849941724E0,-1.842473447E-1,-2.539981127E0,-1.109073281E0
6.859899328E0,4.911268353E-1,-3.168097258E0,-1.324427366E0
6.869841047E0,1.076171994E0,-3.934398651E0,-1.530210137E0
6.879782714E0,1.238883972E0,-5.395814896E0,-1.496710539E0
6.889684276E0,9.846464992E-1,-8.145766258E0,-1.310070395E0
6.899625943E0,5.778666735E-1,-1.276869965E1,-1.439282775E0
6.909567610E0,1.800599098E-1,-1.819263077E1,-1.089930773E0
6.919502714E0,-1.507478207E-1,-2.094736671E1,-3.589234129E-2
6.929444381E0,-2.488535643E0,-1.611326790E1,-4.091726840E-1
6.939386047E0,-3.849453449E0,-1.066122150E1,-1.693520188E0
6.949304016E0,-2.421536446E0,-1.081436157E1,-1.688734531E0
6.959245683E0,-2.742773056E0,-1.282672596E1,-2.488535643E0
6.969187349E0,-5.267200947E0,-1.550489235E1,-4.131806374E0
6.979140526E0,-8.352746010E0,-1.671207237E1,-4.203591347E0
6.989082245E0,-1.139043427E1,-1.717209244E1,-2.876770973E0
6.999023912E0,-7.586444378E0,-1.753580093E1,-1.717448473E0
7.008969120E0,-7.178467698E-3,-1.781875229E1,-2.071586132E0
7.018910839E0,3.614956856E0,-1.674078560E1,-3.134597540E-1
7.028852506E0,3.921836376E0,-1.617548180E1,5.587241054E-1
7.038779381E0,3.040081263E0,-1.658764458E1,9.942178130E-1
7.048721099E0,1.100100160E0,-1.727737617E1,6.017948985E-1
7.058662766E0,-1.319641709E0,-1.820698738E1,1.752742529E-1
7.068581568E0,-3.556930780E0,-1.898286057E1,9.511470199E-1
7.078522506E0,-5.928816319E0,-1.836969948E1,1.344168067E0
7.088463443E0,-6.484549522E0,-1.581117344E1,9.894321561E-1
7.098386881E0,-5.430510998E0,-1.340638733E1,8.434699476E-2
7.108327766E0,-3.714857101E0,-1.229970646E1,-8.021938205E-1
7.118268703E0,-1.525424480E0,-1.221775246E1,-1.195214868E0
7.128186516E0,-2.464607358E-1,-1.198325539E1,-1.482353687E0
7.138127506E0,-6.460621208E-2,-1.126002502E1,-1.794018745E0
7.148068391E0,-1.196411345E-2,-1.033998489E1,-2.287538528E0
7.158044485E0,2.213360928E-2,-8.557929993E0,-2.838485956E0
7.167985422E0,4.606183618E-2,-6.243472576E0,-3.092125177E0
7.177926412E0,3.170489892E-2,-4.049253941E0,-3.106482029E0
7.187823964E0,-2.368894368E-1,-2.060818434E0,-3.130410194E0
7.197764901E0,-7.016952634E-1,-3.601198196E-1,-2.800200701E0
7.207705839E0,-1.506281853E0,9.810572863E-1,-2.555534601E0
7.217660683E0,-2.431107759E0,2.159522533E0,-2.522035122E0
7.227601620E0,-3.154338360E0,2.700898647E0,-2.737987280E0
7.237542558E0,-3.206980467E0,2.437688112E0,-2.886342287E0
7.247486151E0,-2.579462767E0,1.762313843E0,-2.450250387E0
7.257427141E0,-1.928016901E0,8.039883971E-1,-1.808375716E0
7.267368026E0,-1.391426325E0,-9.690931439E-2,-5.724828243E-1
7.277269641E0,-5.335994363E-1,-7.244270444E-1,7.501499057E-1
7.287210578E0,6.400800347E-1,-1.012163997E0,1.511665702E0
7.297151568E0,1.933400750E0,-1.160519004E0,1.741974831E0
7.307076360E0,2.968296528E0,-1.644467354E0,1.224527001E0
7.317017297E0,3.154936552E0,-2.851646423E0,4.624129832E-1
7.326958235E0,2.062613010E0,-5.510670662E0,-1.794617027E-1
7.336901568E0,1.657029688E-1,-1.067557812E1,-1.923231244E0
7.346842453E0,-1.396211982E0,-1.836012840E1,-2.905484915E0
7.356783391E0,-3.643072367E0,-2.503849602E1,-2.464607239E0
7.366704589E0,-6.062814236E0,-2.443490601E1,-1.314856052E0
7.376645578E0,-5.751149178E0,-1.586381626E1,6.831508875E-1
7.386586516E0,-1.601994753E0,-1.088614655E1,1.727617979E0
7.396559068E0,-1.362712502E0,-1.236670589E1,-3.565305769E-1
7.406500058E0,-6.565905571E0,-1.947637939E1,-3.647858143E0
7.416440995E0,-1.050867844E1,-2.785125923E1,-4.405186653E0
7.426335683E0,-7.950153351E0,-3.026083183E1,-2.565105915E0
7.436276568E0,-3.044268608E0,-2.635155678E1,-3.456432343E0
7.446217506E0,5.682953596E-1,-2.049213219E1,-5.128417015E0
7.456179224E0,3.092723370E0,-1.681257057E1,-4.012165546E0
7.466120110E0,3.883551121E0,-1.536072540E1,-1.932802439E0
7.476061047E0,2.891726255E0,-1.579681683E1,-1.124626622E-1
7.485964381E0,3.619144261E-1,-1.707637787E1,-2.153540403E-2
7.495905370E0,-2.747558594E0,-1.785703659E1,-1.022333503E0
7.505846308E0,-5.190630436E0,-1.754058647E1,-1.176072359E0
7.515775891E0,-6.441478729E0,-1.538943863E1,-8.356932998E-1
7.525716828E0,-5.459224701E0,-1.203589821E1,-1.046261668E0
7.535657818E0,-3.360719442E0,-9.128020287E0,-9.026923180E-1
7.545604120E0,-1.674377680E0,-7.110870838E0,-6.059823632E-1
7.555545058E0,-4.905286431E-1,-5.587240696E0,-3.756731451E-1
7.565485995E0,-7.896314561E-2,-4.322634220E0,-2.129612118E-1
7.575428495E0,2.991028363E-3,-3.168097258E0,-5.982056633E-2
7.585368912E0,1.609173268E-1,-2.085345030E0,1.734796353E-2
7.595309276E0,2.901297510E-1,-1.088734269E0,-1.555334777E-1
7.605222089E0,3.667000830E-1,-4.175475538E-1,-5.389832854E-1
7.615162453E0,3.427718580E-1,1.046859920E-1,-1.238285661E0
7.625102870E0,1.800599098E-1,6.556333899E-1,-2.445464849E0
7.635066412E0,1.256231871E-2,1.067198873E0,-3.389433384E0
7.645006776E0,-2.632104978E-2,1.105484009E0,-3.657429457E0
7.654947141E0,-5.982056633E-2,9.619147182E-1,-3.269792080E0
7.664882662E0,2.213360928E-2,8.231309652E-1,-2.392822742E0
7.674823026E0,2.470589429E-1,6.125625968E-1,-1.477568030E0
7.684763443E0,3.954139352E-1,3.726821244E-1,-5.144568682E-1
7.694693703E0,3.571287692E-1,3.230310604E-2,4.289134443E-1
7.704634068E0,6.999006122E-2,-4.851447940E-1,9.894321561E-1
7.714574485E0,-5.820540786E-1,-1.395015597E0,9.320043921E-1
7.724488183E0,-1.631306887E0,-2.842075109E0,5.341976285E-1
7.734428599E0,-2.627319336E0,-5.050650597E0,-4.857429862E-1
7.744368964E0,-2.919841766E0,-8.955139160E0,-2.124228239E0
7.754326308E0,-2.982055187E0,-1.535593891E1,-3.116053343E0
7.764266672E0,-3.873381615E0,-2.234597206E1,-2.718844652E0
7.774207089E0,-5.636293888E0,-2.467000198E1,-2.919841766E0
7.784137245E0,-8.021938324E0,-1.946202278E1,-4.150949001E0
7.794077610E0,-6.876972198E0,-1.399083424E1,-3.580859184E0
7.804018026E0,-2.948555708E0,-1.255334568E1,-2.493321180E0
7.813947922E0,-1.295713425E0,-1.314257812E1,-1.961516380E0
7.823888287E0,-1.458425403E0,-1.525544071E1,-2.512463808E0
7.833828703E0,-1.727019787E0,-2.065484428E1,-4.079164505E0
7.843734849E0,-2.368894368E-1,-2.553680229E1,-3.571287870E0
7.853675266E0,2.460419893E0,-2.475614357E1,-1.774876237E0
7.863615631E0,1.243669510E0,-1.941416740E1,-6.203392744E-1
7.873558912E0,-2.225325108E-1,-1.669771385E1,-5.503492057E-2
7.883499276E0,-1.472782373E0,-1.727259064E1,-3.373879790E-1
7.893439693E0,-3.556930780E0,-2.006561279E1,-9.601200819E-1
7.903376620E0,-5.775077343E0,-2.246142578E1,-9.218349457E-1
7.913317037E0,-7.284350395E0,-2.214019012E1,-3.517449200E-1
7.923257401E0,-7.907082558E0,-1.939980888E1,-1.200000525E0
7.933207506E0,-7.226922512E0,-1.550489235E1,-1.894517303E0
7.943147870E0,-5.636293888E0,-1.253420353E1,-1.228714466E0
7.953088287E0,-3.332005501E0,-1.078564835E1,-1.171286702E0
7.963001985E0,-1.171286702E0,-9.175876617E0,-1.520638824E0
7.972942401E0,1.082752272E-1,-7.230511665E0,-1.348355532E0
7.982882766E0,8.123632669E-1,-5.295316696E0,-1.171286702E0
7.992809276E0,1.506880045E0,-3.512663603E0,-1.085145116E0
8.002749693E0,1.957328916E0,-1.725823283E0,-6.969096065E-1
8.012690058E0,2.134397745E0,8.374879137E-3,-2.512463629E-1
8.022621308E0,2.264208317E0,1.474576950E0,-1.411765367E-1
8.032561724E0,2.076970100E0,2.739183664E0,-5.581258535E-1
8.042502089E0,1.535593987E0,3.506083488E0,-1.219143152E0
8.052464849E0,1.133599758E0,3.223132133E0,-1.515853167E0
8.062405214E0,5.198407173E-1,2.006381750E0,-1.228714466E0
8.072345578E0,-2.847459018E-1,5.688936114E-1,-6.634100676E-1
8.082282974E0,-3.373879790E-1,-4.947160780E-1,-1.555334777E-1
8.092223026E0,-1.220339537E-1,-1.246660590E0,4.606183618E-2
8.102162974E0,-1.028913707E-1,-1.917249203E0,1.369891018E-1
8.112065683E0,-3.086741269E-1,-2.434697151E0,-7.178467698E-3
8.122005683E0,-5.533402562E-1,-2.732005358E0,-5.389832854E-1
8.131945631E0,-9.314061999E-1,-2.918645382E0,-1.683948994E0
8.141908183E0,-1.511067510E0,-3.474378586E0,-2.378465652E0
8.151848183E0,-1.928016901E0,-4.695914268E0,-1.908874273E0
8.161788131E0,-2.297109842E0,-6.334399700E0,-1.444068432E0
8.171720266E0,-2.507678032E0,-8.601000786E0,-1.856232166E0
8.181660318E0,-2.368894339E0,-1.246720409E1,-1.381855130E0
8.191600266E0,-2.047657967E0,-1.715773392E1,-3.708875179E-1
8.201541360E0,-2.100300074E0,-1.898286057E1,-2.560320199E-1
8.211481360E0,-3.499503136E0,-1.534158230E1,-1.774876237E0
8.221421360E0,-3.815953970E0,-1.210768223E1,-3.499503136E0
8.231317245E0,-3.015554667E0,-1.283151150E1,-3.714857101E0
8.241257245E0,-3.815953970E0,-1.394297791E1,-4.285545349E0
8.251197193E0,-4.319045067E0,-1.526501179E1,-5.784648895E0
8.261149068E0,-4.893920422E0,-1.796232224E1,-7.370491982E0
8.271089068E0,-3.710071564E0,-1.961037827E1,-4.472185612E0
8.281029016E0,1.322034448E-1,-1.967259216E1,-6.586244106E-1
8.290956620E0,2.369492531E0,-1.893021774E1,-1.172483116E-1
8.300896620E0,1.761117458E0,-1.747358704E1,-6.939185411E-2
8.310836568E0,6.831508875E-1,-1.698485374E1,3.619144261E-1
8.320794485E0,-4.522434771E-1,-1.821655846E1,2.087737769E-1
8.330734485E0,-2.095514536E0,-2.047299004E1,5.539384484E-1
8.340674485E0,-3.719642878E0,-2.244228363E1,1.080359459E0
8.350605943E0,-5.727221012E0,-2.218804550E1,9.080761671E-1
8.360545943E0,-8.252246857E0,-1.918864250E1,3.667000830E-1
8.370485891E0,-8.659625053E0,-1.608934021E1,-6.490531564E-1
8.380405735E0,-7.059424877E0,-1.471885014E1,-1.343569875E0
8.390345735E0,-4.649254322E0,-1.425404453E1,-1.525424480E0
8.400285683E0,-2.287538528E0,-1.348295784E1,-1.937588096E0
8.410215891E0,-7.639086246E-1,-1.181575775E1,-2.819343328E0
8.420155891E0,-5.503492057E-2,-9.415159225E0,-3.399004459E0
8.430095839E0,2.949153781E-1,-6.703492641E0,-3.542573929E0
8.440025006E0,6.687939167E-1,-4.168895245E0,-3.375076294E0
8.449965006E0,8.889335990E-1,-2.248056889E0,-2.900699139E0
8.459905006E0,9.846464992E-1,-9.684949517E-1,-2.244467735E0
8.469830891E0,1.138385415E0,-4.905286431E-2,-2.114656925E0
8.479770891E0,1.200598717E0,9.714859724E-1,-2.603390932E0
8.489710839E0,9.415757060E-1,1.762313843E0,-3.183052301E0
8.499670162E0,1.704886109E-1,1.685743570E0,-3.461217880E0
8.509610162E0,-8.213363886E-1,1.110269666E0,-2.891128063E0
8.519550110E0,-1.640878081E0,6.843472719E-1,-1.660020709E0
8.529484016E0,-1.674377680E0,3.678964674E-1,-5.096712112E-1
8.539424016E0,-1.123430252E0,3.230310604E-2,2.470589429E-1
8.549363964E0,-5.389832854E-1,-2.835494876E-1,1.018146038E0
8.559303599E0,-1.555334777E-1,-4.654040039E-1,1.670190215E0
8.569243599E0,3.810569942E-1,-5.808576941E-1,1.804188251E0
8.579183599E0,1.066002488E0,-6.669993401E-1,1.152742267E0
8.589115578E0,1.588235974E0,-8.057830334E-1,7.357929349E-1
8.599055110E0,1.703689694E0,-1.332802176E0,7.788637877E-1
8.608994693E0,1.080957651E0,-2.468196630E0,2.997010350E-1
8.618916099E0,-3.948157430E-1,-4.686343193E0,-1.434497118E0
8.628855631E0,-1.621735573E0,-8.801998138E0,-3.772883177E0
8.638795214E0,-1.779661894E0,-1.438325691E1,-3.815953970E0
8.648728860E0,-2.733201742E0,-2.114836502E1,-3.044268608E0
8.658668391E0,-3.796811342E0,-2.668176651E1,-4.232305050E0
8.668607974E0,-5.464010715E0,-2.450669098E1,-2.651247501E0
8.678542037E0,-6.565905571E0,-1.580638790E1,-4.809573591E-1
8.688481620E0,-4.098307133E0,-1.189232826E1,-8.691928387E-1
8.698421151E0,-4.524827480E0,-1.549053574E1,-2.134397745E0
8.708372506E0,-8.405387878E0,-2.152702904E1,-3.139981508E0
8.718312037E0,-8.127820015E0,-2.420998192E1,-2.172683001E0
8.728251620E0,-4.438685894E0,-2.267678070E1,-2.047657967E0
8.738189797E0,-5.000999570E-1,-1.950988007E1,-3.217149973E0
8.748129328E0,2.474776745E0,-1.768475342E1,-2.694916487E0
8.758068912E0,3.686741590E0,-1.671207237E1,-1.640878081E0
8.768003391E0,3.370888948E0,-1.745923042E1,-3.469592929E-1
8.777942974E0,1.497308731E0,-1.893021774E1,-3.948157430E-1
8.787882506E0,-1.750947952E0,-1.993639946E1,-1.722234130E0
8.797823860E0,-5.650650501E0,-1.983590126E1,-1.765304923E0
8.807763443E0,-7.931010723E0,-1.803410530E1,-6.394818425E-1
8.817702974E0,-7.557730198E0,-1.497787380E1,-1.051047325E0
8.827612714E0,-4.472185612E0,-1.255334568E1,-1.717448473E0
8.837552245E0,-1.995015860E0,-1.081436157E1,-1.429711580E0
8.847491828E0,-4.091726840E-1,-9.262018204E0,-1.271785259E0
8.857435058E0,4.001995921E-1,-7.657032490E0,-1.171286702E0
8.867374589E0,3.762713671E-1,-6.042475224E0,-9.744769931E-1
8.877314172E0,-2.153540403E-2,-4.576273441E0,-8.356932998E-1
8.887273026E0,-3.182454109E-1,-3.244667530E0,-6.538388133E-1
8.897212610E0,-5.533402562E-1,-1.811964989E0,-4.618147612E-1
8.907152193E0,-7.112665176E-1,-4.223332107E-1,-6.681957245E-1
8.917083756E0,-6.681957245E-1,5.784648657E-1,-1.185643673E0
8.927023339E0,-6.203392744E-1,1.407577872E0,-1.731805444E0
8.936962922E0,-8.261220455E-1,1.891526341E0,-2.134397745E0
8.946871776E0,-9.218349457E-1,1.977667928E0,-2.085943222E0
8.956811308E0,-8.596215248E-1,1.637288928E0,-1.741376638E0
8.966750891E0,-5.096712112E-1,9.762716293E-1,-1.515853167E0
8.976708026E0,-1.220339537E-1,5.623133108E-2,-1.276570916E0
8.986647610E0,3.140579760E-1,-6.622136831E-1,-9.457631707E-1
8.996587141E0,7.453642488E-1,-1.122233868E0,-7.639086246E-1
9.006532141E0,1.018146038E0,-1.644467354E0,-9.170492887E-1
9.016471672E0,9.511470199E-1,-2.362912416E0,-1.022333503E0
9.026411203E0,3.667000830E-1,-3.507878065E0,-9.314061999E-1
9.036338599E0,-2.895315289E-1,-5.117649555E0,-6.777670383E-1
9.046278183E0,-9.792626500E-1,-7.335795879E0,-6.634100676E-1
9.056217766E0,-1.491924882E0,-1.063190937E1,-4.618147612E-1
9.066118287E0,-1.880160451E0,-1.453699589E1,-1.986042857E-1
9.076057818E0,-2.234896421E0,-1.814477348E1,-1.651047617E-1
9.085997401E0,-3.020340443E0,-1.898764610E1,-1.172483116E-1
9.095951047E0,-3.825525284E0,-1.591645813E1,-1.156929731E0
9.105890318E0,-2.081157446E0,-1.245284748E1,-3.173480988E0
9.115829537E0,7.788637877E-1,-1.221775246E1,-5.674578667E0
9.125776672E0,9.750752449E-1,-1.502094460E1,-6.062814236E0
9.135715891E0,-9.026923180E-1,-1.801496315E1,-3.332005501E0
9.145655110E0,-4.874777794E0,-2.142174530E1,-2.733201742E0
9.155575578E0,-6.853044033E0,-2.337608337E1,-2.402393818E0
9.165514849E0,-3.849453449E0,-2.125364876E1,-1.377069473E0
9.175454068E0,-1.555334777E-1,-1.837927055E1,-1.400997639E0
9.185404797E0,1.593021631E0,-1.720559120E1,-1.036690354E0
9.195344016E0,1.372882009E0,-1.685085487E1,-6.460621208E-2
9.205283287E0,1.226321608E-1,-1.801017761E1,-1.172483116E-1
9.215196933E0,-1.171286702E0,-2.057827568E1,-2.991028428E-1
9.225136151E0,-2.881556749E0,-2.227897263E1,-2.273181528E-1
9.235075370E0,-5.324628353E0,-2.150310135E1,-4.618147612E-1
9.245014120E0,-6.206383705E0,-1.891107559E1,-1.276570916E0
9.254953339E0,-5.363512039E0,-1.591645813E1,-1.765304923E0
9.264892558E0,-4.031308174E0,-1.347338581E1,-1.612164259E0
9.274844953E0,-2.507678032E0,-1.187797165E1,-1.626521230E0
9.284784224E0,-1.338784218E0,-1.036869907E1,-1.760519266E0
9.294723391E0,-5.533402562E-1,-8.715856552E0,-1.506281853E0
9.304657818E0,1.704886109E-1,-7.187440872E0,-1.214357495E0
9.314597089E0,9.080761671E-1,-5.668596745E0,-1.070788145E0
9.324536308E0,1.516451359E0,-3.939184189E0,-1.031904817E0
9.334448964E0,1.794616938E0,-2.185843468E0,-1.089930773E0
9.344388235E0,1.813759565E0,-4.899304509E-1,-1.161715388E0
9.354327453E0,1.684547186E0,9.762716293E-1,-1.066002488E0
9.364293235E0,1.344168067E0,2.222334146E0,-1.118644595E0
9.374232506E0,6.975077987E-1,3.084348440E0,-1.377069473E0
9.384171724E0,-1.124626622E-1,3.386442184E0,-1.631306887E0
9.394116672E0,-9.026923180E-1,2.921636343E0,-1.587637782E0
9.404055943E0,-1.400997639E0,1.714457393E0,-1.400997639E0
9.413995162E0,-1.357926846E0,1.764706671E-1,-1.544566989E0
9.423894797E0,-1.094716311E0,-8.344969153E-1,-1.770090580E0
9.433834016E0,-6.729813814E-1,-1.404586911E0,-1.727019787E0
9.443773235E0,-3.756731451E-1,-1.697109461E0,-1.276570916E0
9.453733339E0,-2.081755698E-1,-1.831107497E0,-8.979067206E-1
9.463672558E0,-3.996013701E-1,-1.902892232E0,-6.777670383E-1
9.473611776E0,-6.394818425E-1,-2.334198475E0,-7.064808607E-1
9.483547349E0,-9.314061999E-1,-3.522234917E0,-1.109073281E0
9.493486620E0,-1.276570916E0,-5.587240696E0,-8.213363886E-1
9.503425787E0,-1.520638824E0,-8.231907845E0,3.619144261E-1
9.513359537E0,-1.765304923E0,-1.074257755E1,8.362914920E-1
9.523298808E0,-2.196611166E0,-1.281236839E1,1.226321608E-1
9.533238026E0,-2.541177750E0,-1.457528114E1,-1.966302037E0
9.543168547E0,-2.670390129E0,-1.603669739E1,-4.582255363E0
9.553107818E0,-1.693520188E0,-1.732523155E1,-5.770291805E0
9.563047037E0,1.363310695E0,-1.802931976E1,-3.192623615E0
9.572972141E0,4.329214573E0,-1.735873222E1,-3.565305769E-1
9.582911360E0,4.247260094E0,-1.695613861E1,-7.208378315E-1
9.592850578E0,1.526022673E0,-1.905943108E1,-3.178266764E0
9.602774068E0,-2.047657967E0,-2.264328003E1,-4.103092670E0
9.612712974E0,-4.491328239E0,-2.460778809E1,-2.431107759E0
9.622651881E0,-5.109274387E0,-2.308894348E1,-5.629115105E-1
9.632599953E0,-3.351148129E0,-2.020918274E1,-2.392822644E-3
9.642538808E0,-1.813161373E0,-1.863290977E1,3.092723191E-1
9.652477766E0,-1.223928809E0,-1.831705666E1,8.362914920E-1
9.662422141E0,-1.003190875E0,-1.858505440E1,8.745766878E-1
9.672361099E0,-1.727019787E0,-1.954816437E1,9.391828626E-2
9.682300058E0,-3.312862873E0,-2.045384789E1,-1.214357495E0
9.692236099E0,-5.047060966E0,-2.025703812E1,-2.407179594E0
9.702175006E0,-6.254240036E0,-1.795274925E1,-3.139981508E0
9.712114016E0,-6.034100533E0,-1.468535042E1,-3.049054146E0
9.722036672E0,-4.419543266E0,-1.199761295E1,-2.321038008E0
9.731975578E0,-2.608176708E0,-1.007139015E1,-1.908874273E0
9.741914485E0,-1.195214868E0,-8.313263893E0,-1.698305845E0
9.751845578E0,9.870393574E-2,-6.684350014E0,-1.515853167E0
9.761784485E0,1.181456208E0,-5.222933769E0,-1.214357495E0
9.771723443E0,2.096112728E0,-3.719044685E0,-8.500502706E-1
9.781673235E0,2.536990166E0,-2.036890268E0,-6.203392744E-1
9.791612141E0,2.565704107E0,-5.569294691E-1,-3.804588020E-1
9.801551151E0,2.192423820E0,6.364908218E-1,-4.761717021E-1
9.811518391E0,1.521237016E0,1.579861164E0,-1.214357495E0
9.821457297E0,5.587241054E-1,1.877169371E0,-2.163111687E0
9.831396256E0,-3.230310678E-1,1.488933921E0,-2.421536446E0
9.841299901E0,-1.166501045E0,9.284151793E-1,-2.119442701E0
9.851238808E0,-1.377069473E0,3.200400174E-1,-1.817947030E0
9.861177714E0,-9.170492887E-1,-4.366901219E-1,-1.803590059E0
9.871138860E0,-4.857429862E-1,-1.016949654E0,-1.674377680E0
9.881077766E0,-1.698904037E-1,-1.131805062E0,-1.616949916E0
9.891016724E0,1.944168359E-1,-9.254241586E-1,-1.942373753E0
9.900943287E0,2.614158690E-1,-5.090730190E-1,-2.311466694E0
9.910882245E0,-7.178467698E-3,-3.792623878E-1,-1.698305845E0
9.920821203E0,-5.581258535E-1,-1.079162955E0,-4.618147612E-1
9.930730735E0,-1.228714466E0,-2.511267424E0,5.563312769E-2
9.940669589E0,-9.984052777E-1,-4.581058979E0,-1.137787223E0
9.950608547E0,-4.067798331E-2,-8.514859200E0,-3.082553864E0
9.960555995E0,7.070791125E-1,-1.460878086E1,-3.360719442E0
9.970494953E0,-4.546362907E-2,-2.001775551E1,-2.474178553E0
9.980433860E0,-2.545963287E0,-1.984068680E1,-6.729813814E-1
9.990375683E0,-4.505684853E0,-1.634776497E1,-1.220339537E-1
1.000031464E1,-3.432504177E0,-1.488634777E1,-1.607378602E0
1.001025360E1,-1.233500123E0,-1.681257057E1,-4.246662140E0
1.002020094E1,-5.024927482E-2,-1.992682838E1,-3.782454491E0
1.003013990E1,-7.304090858E-1,-2.356332016E1,-7.878368497E-1
1.004007886E1,-2.263610125E0,-2.641377068E1,3.571287692E-1
1.005002350E1,-2.187039852E0,-2.732902527E1,-1.028913707E-1
1.005996240E1,-1.022333503E0,-2.616970253E1,-1.587637782E0
1.006990136E1,-1.266999602E0,-2.358724976E1,-2.507678032E0
1.007981058E1,-1.324427366E0,-2.133500481E1,-2.340180635E0
1.008974943E1,-8.548358679E-1,-1.999382782E1,-2.172683001E0
1.009968839E1,-1.290927768E0,-1.916471481E1,-1.875374794E0
1.010963464E1,-1.851446509E0,-1.797189331E1,-1.271785259E0
1.011957350E1,-2.225325108E0,-1.581117344E1,-8.021938205E-1
1.012951235E1,-2.133799553E0,-1.276391411E1,-2.464607358E-1
1.013946329E1,-1.420140266E0,-9.889535904E0,1.657029688E-1
1.014940214E1,-4.713860750E-1,-7.618747234E0,4.049852192E-1
1.015934100E1,2.374876440E-1,-5.913262844E0,5.874379873E-1
1.016924537E1,6.592226624E-1,-4.470989227E0,6.400800347E-1
1.017918417E1,9.894321561E-1,-3.201596737E0,3.332005441E-1
1.018912303E1,1.253240824E0,-1.955534339E0,-1.794617027E-1
1.019910209E1,1.372882009E0,-6.909275651E-1,-7.591229677E-1
1.020904094E1,1.186241865E0,3.104687333E-1,-1.300499082E0
1.021897974E1,6.065805554E-1,1.119840980E0,-1.305284739E0
1.022888308E1,-1.651047617E-1,1.441077471E0,-9.074779749E-1
1.023882188E1,-7.160521746E-1,1.321436286E0,-3.326023519E-1
1.024876074E1,-8.883354068E-1,1.168295622E0,1.274178028E-1
1.025871428E1,-3.421736360E-1,7.561319470E-1,-2.464607358E-1
1.026865313E1,4.528416991E-1,-6.819544733E-2,-1.290927768E0
1.027859193E1,9.272187948E-1,-7.722834945E-1,-2.330609322E0
1.028855480E1,1.095314622E0,-1.237089276E0,-2.919841766E0
1.029849365E1,8.506484628E-1,-1.572682738E0,-3.068196774E0
1.030843251E1,1.417747438E-1,-1.898106575E0,-2.852842808E0
1.031835021E1,-4.331009090E-1,-2.329412937E0,-2.201396942E0
1.032828907E1,-7.495517135E-1,-2.698505640E0,-1.012762189E0
1.033822787E1,-8.883354068E-1,-2.923431158E0,-3.589234129E-2
1.034813287E1,-5.485545993E-1,-3.426522017E0,-2.703889608E-1
1.035807167E1,1.609173268E-1,-5.079364300E0,-1.679163337E0
1.036801053E1,7.549355626E-1,-8.495118141E0,-3.096910715E0
1.037795100E1,1.157527924E0,-1.456571007E1,-3.600001574E0
1.038788980E1,6.544370055E-1,-2.191047859E1,-3.034697294E0
1.039782865E1,-1.180858016E0,-2.479921341E1,-2.977269650E0
1.040776021E1,-4.773681164E0,-1.828355789E1,-4.634897232E0
1.041769902E1,-5.051846981E0,-1.113500023E1,-3.719642878E0
1.042763787E1,-4.283152521E-1,-1.040219784E1,7.118647099E-1
1.043758370E1,1.095314622E0,-1.174397373E1,2.259422779E0
1.044752251E1,-1.381855130E0,-1.409133244E1,7.501499057E-1
1.045746131E1,-4.328616142E0,-1.921795464E1,-1.496710539E0
1.046742324E1,-6.239883423E0,-2.450190544E1,-1.904088616E0
1.047736209E1,-6.407381058E0,-2.582932472E1,-1.099501967E0
1.048730089E1,-6.541976929E0,-2.446362114E1,-2.867199659E0
1.049720865E1,-6.306882381E0,-2.304587364E1,-3.494717360E0
1.050714745E1,-4.112663746E0,-2.257628250E1,-3.379862070E0
1.051708631E1,-2.244467735E0,-2.194876480E1,-3.111267567E0
1.052705188E1,-2.133799553E0,-2.116750717E1,-3.236292601E0
1.053699074E1,-2.871985435E0,-2.019960976E1,-3.461217880E0
1.054692954E1,-3.025125980E0,-1.817348862E1,-3.154338360E0
1.055685001E1,-2.153540373E0,-1.541336727E1,-2.962912560E0
1.056678886E1,-5.048855543E-1,-1.277827072E1,-2.646461725E0
1.057672766E1,1.147956610E0,-1.054098225E1,-1.980658889E0
1.058668178E1,2.335993052E0,-8.591429710E0,-1.142572761E0
1.059662058E1,2.681157827E0,-6.856633186E0,-5.246263742E-1
1.060655943E1,2.417349100E0,-5.208576679E0,-1.986042857E-1
1.061648344E1,1.986042738E0,-3.531806231E0,-1.603191197E-1
1.062642214E1,1.617548108E0,-1.984248161E0,-2.464607358E-1
1.063636089E1,1.162313581E0,-5.473581553E-1,-3.134597540E-1
1.064629308E1,5.006981492E-1,5.018945336E-1,-3.373879790E-1
1.065623178E1,-3.326023519E-1,1.225723386E0,-5.820540786E-1
1.066617053E1,-1.381855130E0,1.546361685E0,-1.314856052E0
1.067612344E1,-2.249253273E0,1.302293777E0,-2.201396942E0
1.068606214E1,-2.455035925E0,5.880361795E-1,-2.416750908E0
1.069600084E1,-2.426322222E0,-3.469592705E-2,-2.158325911E0
1.070590422E1,-1.985444546E0,-6.622136831E-1,-2.090728760E0
1.071584292E1,-1.099501967E0,-1.098305583E0,-1.880160451E0
1.072578162E1,-3.373879790E-1,-1.251446247E0,-1.439282775E0
1.073572902E1,2.039881349E-1,-1.356730461E0,-8.165507317E-1
1.074566777E1,6.831508875E-1,-1.280160069E0,3.170489892E-2
1.075560646E1,9.894321561E-1,-1.079162955E0,7.501499057E-1
1.076552870E1,1.003789067E0,-9.014959335E-1,1.100100160E0
1.077546735E1,6.544370055E-1,-1.117448211E0,9.080761671E-1
1.078540610E1,8.434699476E-2,-2.214557409E0,-1.196411345E-2
1.079535058E1,-1.794617027E-1,-4.241278172E0,-1.166501045E0
1.080528933E1,-1.196411345E-2,-7.499105930E0,-2.560320139E0
1.081522797E1,2.853440940E-1,-1.305165100E1,-3.322434187E0
1.082517891E1,3.092723191E-1,-2.114357948E1,-2.627319336E0
1.083511766E1,1.992024779E-1,-2.768316269E1,-3.139981508E0
1.084505636E1,-1.846660852E0,-2.435354996E1,-4.093521118E0
1.085499506E1,-3.671786308E0,-1.485284805E1,-2.785843849E0
1.086493381E1,-8.261220455E-1,-1.183490086E1,-2.943171859E-1
1.087487251E1,8.027920127E-1,-1.480499172E1,-1.789233088E0
1.088482214E1,-2.579462767E0,-2.074577141E1,-5.190630436E0
1.089476084E1,-6.762116909E0,-2.670150757E1,-4.792823792E0
1.090469954E1,-7.470990658E0,-2.763530731E1,-8.596215248E-1
1.091461157E1,-4.754538536E0,-2.385524559E1,2.374876440E-1
1.092455021E1,-1.975873351E0,-2.010389709E1,-1.568495274E0
1.093448891E1,6.161518097E-1,-1.917907143E1,-1.482353687E0
1.094445183E1,2.144567251E0,-2.004168510E1,-1.262213945E0
1.095439058E1,1.651047587E0,-2.168017006E1,-2.579462767E0
1.096432928E1,-1.190429211E0,-2.190090752E1,-3.163909674E0
1.097427443E1,-5.228915691E0,-1.959123611E1,-2.311466694E0
1.098421318E1,-6.349953175E0,-1.622812271E1,-1.889731646E0
1.099415188E1,-5.051846981E0,-1.318086338E1,-2.167897224E0
1.100407032E1,-3.149552822E0,-1.114457130E1,-2.512463808E0
1.101400902E1,-1.041476011E0,-9.765109062E0,-2.234896421E0
1.102394771E1,6.113662124E-1,-8.452047348E0,-1.530210137E0
1.103387605E1,1.708475351E0,-7.130013466E0,-7.878368497E-1
1.104381474E1,2.149353027E0,-5.592026711E0,-4.331009090E-1
1.105375344E1,1.942971945E0,-3.728615999E0,-3.278166950E-1
1.106368068E1,1.468594909E0,-1.883749604E0,-4.618147612E-1
1.107361943E1,8.841479421E-1,-4.654040039E-1,-6.777670383E-1
1.108355813E1,2.213360928E-2,2.865405083E-1,-8.739784956E-1
1.109352521E1,-1.276570916E0,5.210371017E-1,-1.357926846E0
1.110346391E1,-2.301895380E0,4.540380836E-1,-2.421536446E0
1.111340261E1,-2.660818815E0,5.066801906E-1,-3.005983353E0
1.112330667E1,-3.178266764E0,6.891329288E-1,-2.771486759E0
1.113324521E1,-3.695714474E0,9.140582681E-1,-1.975873351E0
1.114318376E1,-3.375076294E0,8.087740541E-1,-8.500502706E-1
1.115312464E1,-1.971087694E0,1.094716340E-1,1.226321608E-1
1.116306318E1,-5.916253924E-1,-5.186443329E-1,6.783652306E-1
1.117300167E1,2.949153781E-1,-8.440681696E-1,7.357929349E-1
1.118295146E1,8.745766878E-1,-1.007378340E0,5.294120312E-1
1.119288995E1,1.104885817E0,-1.064806104E0,2.709871531E-1
1.120282844E1,9.176474810E-1,-1.170090318E0,-1.794617027E-1
1.121276365E1,4.671986103E-1,-1.438086390E0,-7.351947427E-1
1.122270214E1,7.776673418E-3,-1.754537225E0,-1.252642632E0
1.123264068E1,-2.464607358E-1,-2.252842426E0,-1.669592023E0
1.124259620E1,-5.192425251E-1,-3.244667530E0,-1.798804402E0
1.125253469E1,-1.104287624E0,-4.561916351E0,-8.691928387E-1
1.126247318E1,-1.597209096E0,-6.262615204E0,-1.257428288E0
1.127237386E1,-1.496710539E0,-9.271589279E0,-2.699702263E0
1.128231240E1,-1.185643673E0,-1.516929913E1,-3.217149973E0
1.129225089E1,-6.538388133E-1,-2.342872429E1,-3.590430260E0
1.130221094E1,-1.238285661E0,-2.684986305E1,-3.192623615E0
1.131214943E1,-3.087339401E0,-2.033899307E1,-1.290927768E0
1.132208792E1,-7.064808607E-1,-1.308036518E1,-4.043870270E-1
1.133203105E1,3.749552965E0,-1.311386490E1,-8.979067206E-1
1.134196959E1,1.866401672E0,-1.800539207E1,-1.612164259E0
1.135190808E1,-1.693520188E0,-2.516352081E1,-2.148754835E0
1.136182574E1,-4.347758770E0,-2.890529823E1,-2.100300074E0
1.137176422E1,-7.389634609E0,-2.887179756E1,-2.459821701E0
1.138170277E1,-8.774480820E0,-2.649991226E1,-2.522035122E0
1.139165912E1,-7.155138016E0,-2.375953293E1,-2.464607239E0
1.140159761E1,-4.376472473E0,-2.227418709E1,-2.776272535E0
1.141153615E1,-2.651247501E0,-2.148395729E1,-2.910270452E0
1.142147396E1,-2.033301115E0,-2.102872276E1,-2.876770973E0
1.143141245E1,-1.975873351E0,-1.967259216E1,-2.795415163E0
1.144135100E1,-1.640878081E0,-1.706680679E1,-2.795415163E0
1.145129402E1,-7.064808607E-1,-1.399561977E1,-2.550748825E0
1.146123256E1,3.906283081E-1,-1.105842972E1,-1.918445587E0
1.147117105E1,1.243669510E0,-8.471190453E0,-1.353141189E0
1.148107480E1,1.674975872E0,-6.262615204E0,-9.696913958E-1
1.149101334E1,1.670190215E0,-4.250849247E0,-5.048855543E-1
1.150095188E1,1.387238979E0,-2.228914261E0,-2.153540403E-2
1.151091699E1,9.655039310E-1,-1.304088384E-1,2.997010350E-1
1.152085547E1,5.054838061E-1,1.738385677E0,7.980063558E-1
1.153079396E1,1.082752272E-1,3.165704250E0,9.080761671E-1
1.154072834E1,-2.608176768E-1,4.085744858E0,4.241278172E-1
1.155066683E1,-5.581258535E-1,4.071387768E0,-4.857429862E-1
1.156060537E1,-5.724828243E-1,2.279761791E0,-1.530210137E0
1.157055714E1,-1.794617027E-1,9.990034252E-2,-2.134397745E0
1.158049568E1,3.649054468E-2,-1.313659668E0,-2.709273338E0
1.159043417E1,3.427718580E-1,-2.315055847E0,-3.154338360E0
1.160036521E1,5.922235847E-1,-2.765504837E0,-3.015554667E0
1.161030370E1,4.911268353E-1,-2.775076151E0,-2.603390932E0
1.162024224E1,8.434699476E-2,-2.587837696E0,-2.028515339E0
1.163014459E1,-6.011967063E-1,-2.142772675E0,-1.089930773E0
1.164008303E1,-1.415354609E0,-1.447657704E0,-2.632104978E-2
1.165002141E1,-2.133799553E0,-8.009973764E-1,4.671986103E-1
1.165998954E1,-2.545963287E0,-5.282155871E-1,3.379862010E-1
1.166992792E1,-2.459821701E0,-9.589236975E-1,-4.139583111E-1
1.167986631E1,-1.904088616E0,-2.751147747E0,-1.190429211E0
1.168977844E1,-8.213363886E-1,-5.745167255E0,-1.109073281E0
1.169971688E1,3.523431420E-1,-1.012941647E1,-1.765304923E0
1.170965532E1,1.535593987E0,-1.702313805E1,-4.237090588E0
1.171959386E1,2.000399828E0,-2.584368134E1,-7.672585964E0
1.172953230E1,-3.230310678E-1,-2.952803040E1,-7.557730198E0
1.173947074E1,-5.736792088E0,-2.053520393E1,-3.585644722E0
1.174940797E1,-7.073781967E0,-1.047876835E1,3.480958700E0
1.175934636E1,-3.835096598E0,-7.896314621E0,7.179664135E0
1.176928474E1,-7.639086246E-1,-1.096271706E1,3.964907169E0
1.177924454E1,-8.404789567E-1,-1.985504341E1,-2.018944025E0
1.178918292E1,-2.459821701E0,-2.833999252E1,-3.815953970E0
1.179912131E1,-4.654039860E0,-2.912543678E1,-1.333998680E0
1.180906600E1,-4.735395908E0,-2.335693932E1,-1.621735573E0
1.181900443E1,-2.900699139E0,-2.023311043E1,-3.039483070E0
1.182894282E1,-1.794018745E0,-2.119622040E1,-3.964308977E0
1.183886928E1,-7.112665176E-1,-2.252842522E1,-3.921238184E0
1.184880766E1,-2.847459018E-1,-2.249492645E1,-3.633501291E0
1.185874610E1,-5.772684813E-1,-2.103350830E1,-3.585644722E0
1.186868542E1,-6.394818425E-1,-1.884407616E1,-3.284149170E0
1.187862381E1,-6.107679605E-1,-1.649133301E1,-2.900699139E0
1.188856225E1,-9.810572863E-2,-1.417747402E1,-2.402393818E0
1.189849469E1,6.113662124E-1,-1.161416245E1,-1.549352646E0
1.190843308E1,1.133599758E0,-9.080163956E0,-4.905286431E-1
1.191837146E1,1.348953724E0,-6.693921566E0,4.432703853E-1
1.192829964E1,1.224527001E0,-4.423132420E0,1.037288666E0
1.193823803E1,7.405785918E-1,-2.348555326E0,1.042074203E0
1.194817641E1,-5.503492057E-2,-4.995017350E-1,8.841479421E-1
1.195813792E1,-1.118644595E0,9.906286001E-1,5.682953596E-1
1.196807631E1,-2.177468538E0,2.212762833E0,1.609173268E-1
1.197801475E1,-2.800200701E0,3.022135019E0,-2.512463629E-1
1.198791370E1,-2.977269650E0,3.165704250E0,-9.361918569E-1
1.199785214E1,-2.718844652E0,2.418545485E0,-1.554138303E0
1.200779053E1,-2.277967215E0,1.369292736E0,-1.712662816E0
1.201774339E1,-1.808375716E0,4.540380836E-1,-1.932802439E0
1.202768178E1,-7.639086246E-1,-1.686939895E-1,-2.254039049E0
1.203762016E1,1.274178028E-1,-4.654040039E-1,-2.450250387E0
1.204754891E1,5.443671346E-1,-6.143572330E-1,-2.364108801E0
1.205748735E1,8.602197170E-1,-8.009973764E-1,-2.206182480E0
1.206742574E1,8.315058947E-1,-1.055234790E0,-1.703091502E0
1.207739136E1,4.815555513E-1,-1.452443361E0,-1.113858938E0
1.208732974E1,2.279163599E-1,-2.142772675E0,-1.041476011E0
1.209726818E1,3.092723191E-1,-3.297309637E0,-1.520638824E0
1.210719224E1,7.022934556E-1,-5.199005604E0,-1.770090580E0
1.211713063E1,1.411167145E0,-8.030911446E0,-1.928016901E0
1.212706902E1,1.981257200E0,-1.234756279E1,-2.675773859E0
1.213699693E1,1.545165181E0,-1.748315811E1,-2.718844652E0
1.214693532E1,-3.948157430E-1,-2.071705818E1,-2.733201742E0
1.215687370E1,-4.601397991E0,-1.889193344E1,-4.290330887E0
1.216683100E1,-7.887939930E0,-1.498744488E1,-4.443471432E0
1.217676933E1,-8.247461319E0,-1.355474186E1,-1.496710539E0
1.218670777E1,-6.719046116E0,-1.389990711E1,4.145565331E-1
1.219664709E1,-4.270590305E0,-1.676949883E1,-8.165507317E-1
1.220658547E1,-3.983451605E0,-2.445405006E1,-3.413361549E0
1.221652386E1,-4.778466702E0,-3.050071144E1,-3.154338360E0
1.222643855E1,-4.333401680E0,-2.844049263E1,-9.266205430E-1
1.223637688E1,-1.305284739E0,-2.128236198E1,-7.830511928E-1
1.224631532E1,2.321636200E0,-1.771825409E1,-1.075573802E0
1.225626511E1,3.802195072E0,-1.681735611E1,-4.905286431E-1
1.226620344E1,3.035295486E0,-1.708116531E1,1.800599098E-1
1.227614183E1,1.100100160E0,-1.827877235E1,4.863412082E-1
1.228605865E1,-1.185643673E0,-1.910250092E1,3.188436031E-1
1.229599709E1,-3.144767046E0,-1.856112480E1,-2.033899277E-1
1.230593542E1,-3.580859184E0,-1.656371689E1,-8.261220455E-1
1.231590667E1,-2.943770170E0,-1.373659706E1,-1.190429211E0
1.232584506E1,-1.995015860E0,-1.102493000E1,-1.012762189E0
1.233578344E1,-7.160521746E-1,-9.185447693E0,-9.936196208E-1
1.234568907E1,3.332005441E-1,-7.762316704E0,-1.085145116E0
1.235562745E1,7.501499057E-1,-6.229115486E0,-1.161715388E0
1.236556584E1,8.985049129E-1,-4.571487427E0,-1.367498159E0
1.237551896E1,1.176670551E0,-2.799004316E0,-1.592423439E0
1.238545730E1,1.554736495E0,-1.001994491E0,-1.592423439E0
1.239539574E1,1.622333765E0,4.971089065E-1,-1.247856975E0
1.240535542E1,9.415757060E-1,1.546361685E0,-9.744769931E-1
1.241529381E1,-5.000999570E-1,1.963310957E0,-1.262213945E0
1.242523219E1,-1.856232166E0,1.939382792E0,-1.899302959E0
1.243516313E1,-2.383251429E0,1.810170293E0,-2.397608280E0
1.244510152E1,-2.230110645E0,1.460219979E0,-2.690130949E0
1.245503990E1,-1.195214868E0,4.827519655E-1,-2.622533560E0
1.246497834E1,-8.853443712E-2,-5.712863803E-1,-1.889731646E0
1.247491672E1,-1.746760458E-1,-1.146162033E0,-1.055832982E0
1.248485511E1,-2.512463629E-1,-1.265803218E0,-7.016952634E-1
1.249476157E1,4.606183618E-2,-1.093519926E0,-6.825526357E-1
1.250469995E1,5.246263742E-1,-1.050449133E0,-8.500502706E-1
1.251463834E1,1.013360381E0,-1.490728498E0,-8.452646136E-1
1.252458646E1,1.109671474E0,-2.482553482E0,-1.674975827E-2
1.253452485E1,6.831508875E-1,-4.183252335E0,2.374876440E-1
1.254446324E1,1.752742529E-1,-7.000801086E0,8.913264424E-2
1.255441860E1,-3.517449200E-1,-1.114457130E1,-6.251249313E-1
1.256435699E1,-8.644071817E-1,-1.578724575E1,-1.645663738E0
1.257429537E1,-2.182254314E0,-1.996511459E1,-2.445464849E0
1.258424297E1,-3.887738705E0,-2.231725883E1,-2.225325108E0
1.259418136E1,-4.246662140E0,-2.017568207E1,-2.090728760E0
1.260411974E1,-1.703091502E0,-1.684606934E1,-3.887738705E0
1.261403360E1,2.081755638E0,-1.660678673E1,-6.632904530E0
1.262397198E1,2.259422779E0,-1.923231125E1,-6.148955822E0
1.263391037E1,-1.664806366E0,-2.135953140E1,-2.833700180E0
1.264386225E1,-6.196812630E0,-2.146960068E1,-9.553344250E-1
1.265380063E1,-6.101099491E0,-1.973480415E1,1.034895778E-1
1.266373907E1,-2.383251429E0,-1.855155373E1,1.800599098E-1
1.267365412E1,-5.982056633E-2,-1.831705666E1,-7.639086246E-1
1.268359256E1,2.997010350E-1,-1.867657852E1,-6.251249313E-1
1.269353094E1,-7.495517135E-1,-1.943809509E1,-9.810572863E-2
1.270349089E1,-1.971087694E0,-2.120100594E1,-7.208378315E-1
1.271342928E1,-2.545963287E0,-2.268635178E1,-1.415354609E0
1.272336766E1,-3.413361549E0,-2.136910248E1,-1.295713425E0
1.273330516E1,-5.368297577E0,-1.718166351E1,-1.707877159E0
1.274324360E1,-5.612365723E0,-1.371266842E1,-2.368894339E0
1.275318199E1,-4.203591347E0,-1.183968639E1,-1.985444546E0
1.276312157E1,-2.828914642E0,-1.005224800E1,-1.832303882E0
1.277305995E1,-1.448854089E0,-8.332406998E0,-2.042872429E0
1.278299839E1,3.170489892E-2,-7.005586624E0,-2.129014015E0
1.279291740E1,1.291526079E0,-5.851049423E0,-2.052443504E0
1.280285579E1,2.216351986E0,-4.509274483E0,-2.153540373E0
1.281279417E1,2.642274380E0,-3.057429075E0,-2.301895380E0
1.282274422E1,2.493919373E0,-1.533799291E0,-2.196611166E0
1.283268261E1,2.187638044E0,-2.261217386E-1,-1.674377680E0
1.284262105E1,1.880758643E0,6.221339107E-1,-9.936196208E-1
1.285253881E1,1.315454245E0,1.153938770E0,-7.686942816E-1
1.286247719E1,3.954139352E-1,1.383649707E0,-1.147358418E0
1.287241563E1,-3.086741269E-1,1.105484009E0,-1.789233088E0
1.288234438E1,-6.203392744E-1,5.449653864E-1,-2.095514536E0
1.289228282E1,-8.069794178E-1,1.573280841E-1,-1.942373753E0
1.290222126E1,-1.022333503E0,-8.733802289E-2,-1.765304923E0
1.291216631E1,-1.118644595E0,-3.744767308E-1,-1.750947952E0
1.292210474E1,-9.840483069E-1,-4.462614357E-1,-1.789233088E0
1.293204313E1,-6.011967063E-1,-4.414757788E-1,-1.770090580E0
1.294199902E1,-5.503492057E-2,-4.755735099E-1,-1.467996716E0
1.295193740E1,4.145565331E-1,-7.674978375E-1,-3.708875179E-1
1.296187579E1,4.097708762E-1,-1.505085468E0,8.745766878E-1
1.297182308E1,1.800599098E-1,-2.866003275E0,1.277169108E0
1.298176152E1,-2.081755698E-1,-5.261219025E0,7.836494446E-1
1.299169990E1,-8.835497499E-1,-8.959924698E0,-7.591229677E-1
1.300160730E1,-1.506281853E0,-1.480977726E1,-2.800200701E0
1.301154574E1,-3.149552822E0,-2.216411781E1,-4.309473515E0
1.302148417E1,-5.626722336E0,-2.648077011E1,-3.566502094E0
1.303142495E1,-6.561119556E0,-2.092822456E1,-1.066002488E0
1.304136339E1,-2.718844652E0,-1.342552948E1,1.382453322E0
1.305130183E1,2.321636200E0,-1.272084332E1,6.257231236E-1
1.306123537E1,1.109671474E0,-1.694178200E1,-2.340180635E0
1.307117381E1,-2.665604353E0,-2.470350075E1,-3.183052301E0
1.308111219E1,-3.542573929E0,-3.028954506E1,-2.321038008E0
1.309105141E1,-2.321038008E0,-2.871805954E1,-2.761915445E0
1.310098985E1,-9.266205430E-1,-2.272942162E1,-4.285545349E0
1.311092829E1,6.544370055E-1,-1.982154465E1,-3.058625460E0
1.312085829E1,2.048256159E0,-1.844148445E1,-9.696913958E-1
1.313079672E1,2.264208317E0,-1.813520241E1,-8.309076428E-1
1.314073516E1,1.171884894E0,-1.855633926E1,-1.448854089E0
1.315067521E1,-6.729813814E-1,-1.845105553E1,-1.990230203E0
1.316061344E1,-3.015554667E0,-1.720080566E1,-2.215753794E0
1.317055167E1,-4.965705395E0,-1.476192093E1,-1.923231244E0
1.318051652E1,-5.104488850E0,-1.180140114E1,-1.434497118E0
1.319045474E1,-3.667000771E0,-9.266803741E0,-8.979067206E-1
1.320039292E1,-1.913659930E0,-7.417151928E0,-4.905286431E-1
1.321033574E1,-7.064808607E-1,-5.822335720E0,-9.810572863E-2
1.322027396E1,-6.939185411E-2,-4.327419758E0,7.477571070E-2
1.323021219E1,1.944168359E-1,-2.937788010E0,1.322034448E-1
1.324013115E1,2.374876440E-1,-1.438086390E0,1.417747438E-1
1.325006938E1,8.434699476E-2,-3.948157281E-2,1.082752272E-1
1.326000766E1,-2.129612118E-1,1.081555843E0,-9.810572863E-2
1.326994792E1,-8.883354068E-1,2.020738840E0,-6.490531564E-1
1.327988615E1,-1.463211060E0,2.447259426E0,-1.372283816E0
1.328982438E1,-1.554138303E0,2.313261271E0,-1.975873351E0
1.329976172E1,-1.329213023E0,1.685743570E0,-2.148754835E0
1.330969990E1,-8.165507317E-1,6.891329288E-1,-2.076371908E0
1.331963818E1,-2.177468538E-1,-3.026920557E-1,-1.928016901E0
1.332956980E1,2.374876440E-1,-9.158528447E-1,-1.918445587E0
1.333950808E1,3.954139352E-1,-1.275374413E0,-2.134397745E0
1.334944626E1,5.198407173E-1,-1.533799291E0,-2.215753794E0
1.335938141E1,6.735795736E-1,-1.792822361E0,-2.090728760E0
1.336931959E1,7.692924738E-1,-2.353341103E0,-1.803590059E0
1.337925787E1,9.032905698E-1,-3.143570662E0,-1.951945066E0
1.338920896E1,8.985049129E-1,-4.523631096E0,-1.841875196E0
1.339914714E1,7.310073376E-1,-6.808776855E0,-8.853443712E-2
1.340908537E1,6.305087805E-1,-9.534799576E0,2.158924341E0
1.341901225E1,1.944168359E-1,-1.218903828E1,2.815155745E0
1.342895042E1,-9.361918569E-1,-1.522194099E1,-6.203392744E-1
1.343888870E1,-2.478964329E0,-1.854676819E1,-5.338985443E0
1.344884610E1,-3.101696253E0,-2.046341896E1,-5.703292847E0
1.345878433E1,-4.474578202E-1,-1.942373848E1,-1.190429211E0
1.346872256E1,3.461816072E0,-1.658764458E1,1.506880045E0
1.347865126E1,4.678566456E0,-1.462792301E1,-9.218349457E-1
1.348858948E1,1.976471543E0,-1.594038582E1,-2.569891453E0
1.349852771E1,-2.114656925E0,-2.124407768E1,-2.196611166E0
1.350845813E1,-4.395615101E0,-2.724288368E1,-1.544566989E0
1.351839636E1,-5.746363640E0,-2.931207657E1,-2.761915445E0
1.352833459E1,-8.075178146E0,-2.638027191E1,-3.811168194E0
1.353827943E1,-7.950153351E0,-2.143610191E1,-2.368894339E0
1.354821761E1,-4.424329281E0,-1.943330956E1,-2.057229280E0
1.355815584E1,-1.410568953E0,-1.985504341E1,-3.135195971E0
1.356810422E1,-3.110669367E-2,-2.051606178E1,-3.403790236E0
1.357804245E1,-8.374879509E-2,-1.974975967E1,-2.924627542E0
1.358798068E1,-7.112665176E-1,-1.768953896E1,-2.666202545E0
1.359788922E1,-1.007976532E0,-1.526501179E1,-2.785843849E0
1.360782745E1,-7.208378315E-1,-1.262513065E1,-2.838485956E0
1.361776568E1,-1.220339537E-1,-1.014855862E1,-2.502892494E0
1.362770553E1,4.671986103E-1,-8.136195183E0,-1.870589137E0
1.363764376E1,8.267202377E-1,-6.507281303E0,-1.262213945E0
1.364758198E1,9.463613629E-1,-4.935794830E0,-9.074779749E-1
1.365754381E1,9.511470199E-1,-3.306880951E0,-7.830511928E-1
1.366748209E1,9.415757060E-1,-1.764108539E0,-6.681957245E-1
1.367742037E1,1.032503009E0,-2.356930375E-1,-2.895315289E-1
1.368736079E1,1.085743308E0,9.427721500E-1,6.520441920E-2
1.369729912E1,7.453642488E-1,1.651645780E0,3.170489892E-2
1.370723740E1,-3.278166950E-1,1.963310957E0,-3.852444589E-1
1.371717803E1,-1.722234130E0,1.738385677E0,-1.439282775E0
1.372711631E1,-2.445464849E0,1.278365493E0,-2.440679073E0
1.373705464E1,-2.809772015E0,8.470591903E-1,-2.982055187E0
1.374699464E1,-2.733201742E0,3.248256743E-1,-3.034697294E0
1.375693292E1,-1.923231244E0,-2.356930375E-1,-2.507678032E0
1.376687126E1,-1.362712502E0,-6.813562512E-1,-1.722234130E0
1.377681662E1,-7.304090858E-1,-1.031306505E0,-6.969096065E-1
1.378675495E1,-7.896314561E-2,-1.227517962E0,2.231307179E-1
1.379669329E1,9.870393574E-2,-1.198804140E0,5.682953596E-1
1.380659766E1,-7.896314561E-2,-1.160519004E0,3.427718580E-1
1.381653600E1,-1.411765367E-1,-1.275374413E0,1.034895778E-1
1.382647433E1,-1.746760458E-1,-1.548754454E0,-2.799602449E-1
1.383643074E1,-2.632104978E-2,-2.468196630E0,-1.424925923E0
1.384636907E1,4.193421602E-1,-4.686343193E0,-2.617748022E0
1.385630735E1,1.138385415E0,-8.255836487E0,-3.288934708E0
1.386622089E1,2.383849621E0,-1.324307728E1,-4.246662140E0
1.387615922E1,3.356531858E0,-1.928973961E1,-5.300700188E0
1.388609751E1,2.886940479E0,-2.301237297E1,-4.505684853E0
1.389606324E1,-4.713860750E-1,-2.010389709E1,-2.919841766E0
1.390600152E1,-4.002593994E0,-1.492523098E1,-1.650449395E0
1.391593980E1,-5.003990173E0,-1.417268848E1,6.879364848E-1
1.392585402E1,-5.483152866E0,-1.478106403E1,1.243669510E0
1.393579230E1,-6.397809505E0,-1.870529366E1,-1.770090580E0
1.394573063E1,-8.750552177E0,-2.744866753E1,-3.806382656E0
1.395566058E1,-7.667799950E0,-3.236890793E1,-3.260220766E0
1.396559891E1,-4.107878208E0,-2.801397133E1,-3.183052301E0
1.397553725E1,-2.574677229E0,-2.154138565E1,-3.801596880E0
1.398551855E1,1.369891018E-1,-2.006561279E1,-1.712662816E0
1.399545688E1,2.259422779E0,-2.020918274E1,-7.304090858E-1
1.400539516E1,2.474776745E0,-2.032942200E1,-1.482353687E0
1.401530433E1,1.171884894E0,-2.019960976E1,-2.569891453E0
1.402524261E1,-9.888339639E-1,-1.904986000E1,-3.269792080E0
1.403518089E1,-2.929413080E0,-1.656371689E1,-3.303291559E0
1.404510714E1,-3.341576815E0,-1.334895897E1,-2.455035925E0
1.405504547E1,-2.411965132E0,-1.076171970E1,-1.209571838E0
1.406498376E1,-9.792626500E-1,-8.773283958E0,-1.220339537E-1
1.407492360E1,1.561316848E-1,-6.866204739E0,5.006981492E-1
1.408486188E1,8.027920127E-1,-5.031507969E0,7.310073376E-1
1.409480021E1,1.219741344E0,-3.412165165E0,6.640082598E-1
1.410473631E1,1.301097274E0,-1.922034740E0,5.102694035E-1
1.411467464E1,1.253240824E0,-4.899304509E-1,2.279163599E-1
1.412461292E1,1.234098315E0,7.896314859E-1,-2.632104978E-2
1.413456844E1,8.171489239E-1,1.858026743E0,-2.081755698E-1
1.414450672E1,-3.038884699E-1,2.265404940E0,-5.533402562E-1
1.415444501E1,-1.415354609E0,1.958525300E0,-9.888339639E-1
1.416437641E1,-1.884945989E0,1.527219057E0,-1.367498159E0
1.417431464E1,-1.434497118E0,8.279166222E-1,-1.439282775E0
1.418425282E1,-1.172483116E-1,-2.069791555E-1,-1.578066587E0
1.419420912E1,6.305087805E-1,-1.351944804E0,-1.746162295E0
1.420414735E1,8.937192559E-1,-2.405983210E0,-1.736590981E0
1.421408553E1,1.138385415E0,-2.980858803E0,-1.784447432E0
1.422402501E1,1.243669510E0,-3.138785124E0,-1.827518344E0
1.423396324E1,6.496513486E-1,-2.822932482E0,-1.861017823E0
1.424390141E1,-1.268195957E-1,-2.458625317E0,-1.913659930E0
1.425382813E1,-3.900300860E-1,-2.262413740E0,-1.794018745E0
1.426376636E1,-5.335994363E-1,-2.578266382E0,-1.741376638E0
1.427370454E1,-8.213363886E-1,-3.805186272E0,-1.209571838E0
1.428362027E1,-9.505487680E-1,-5.735595703E0,-3.278166950E-1
1.429355850E1,-8.548358679E-1,-8.672785759E0,3.667000830E-1
1.430349672E1,-1.459621787E-1,-1.382752419E1,1.162313581E0
1.431346329E1,9.128618240E-1,-2.175674057E1,3.649054468E-2
1.432340152E1,1.243669510E0,-2.804268456E1,-2.359323025E0
1.433333969E1,-2.536391973E0,-2.395574379E1,-3.475574970E0
1.434325277E1,-5.641079426E0,-1.611805344E1,-1.736590981E0
1.435319100E1,-1.444068432E0,-1.609891129E1,6.879364848E-1
1.436312922E1,1.358525038E0,-2.317029953E1,-1.161715388E0
1.437308620E1,-1.137787223E0,-3.042354393E1,-2.182254314E0
1.438302443E1,-3.446861029E0,-3.142972565E1,-1.798804402E0
1.439296266E1,-4.016951084E0,-2.668176651E1,-6.107679605E-1
1.440287542E1,-2.757129908E0,-2.145524406E1,1.013360381E0
1.441281365E1,-5.000999570E-1,-1.896371841E1,1.602592945E0
1.442275188E1,6.927221417E-1,-1.772303963E1,6.065805554E-1
1.443270938E1,7.357929349E-1,-1.701356697E1,-8.309076428E-1
1.444264761E1,9.391828626E-2,-1.622812271E1,-1.491924882E0
1.445258579E1,-1.176072359E0,-1.471885014E1,-1.554138303E0
1.446251459E1,-1.995015860E0,-1.266341591E1,-1.487139225E0
1.447245282E1,-1.841875196E0,-1.043569756E1,-1.439282775E0
1.448239105E1,-1.223928809E0,-8.341978073E0,-1.362712502E0
1.449233074E1,-3.565305769E-1,-6.512066841E0,-1.185643673E0
1.450226896E1,3.092723191E-1,-4.859224796E0,-1.017547846E0
1.451220714E1,7.405785918E-1,-3.359523058E0,-9.026923180E-1
1.452215547E1,9.415757060E-1,-1.950748682E0,-8.931210637E-1
1.453209365E1,1.003789067E0,-7.052844763E-1,-1.156929731E0
1.454203188E1,4.624129832E-1,-5.982056726E-3,-1.626521230E0
1.455194199E1,-1.410568953E0,2.913261652E-1,-2.598605394E0
1.456188021E1,-2.938984394E0,4.348955154E-1,-3.595216036E0
1.457181844E1,-3.533002615E0,5.449653864E-1,-4.567898273E0
1.458177350E1,-4.237090588E0,3.966103494E-1,-5.099703312E0
1.459171167E1,-4.548755646E0,2.099701911E-1,-4.012165546E0
1.460164990E1,-3.638286829E0,-1.208375469E-1,-1.051047325E0
1.461157688E1,-2.301895380E0,-2.644068897E-1,7.453642488E-1
1.462151516E1,-8.835497499E-1,8.374879137E-3,1.286740422E0
1.463145334E1,6.400800347E-1,1.621137410E-1,1.583450437E0
1.464139501E1,1.808973908E0,9.990034252E-2,1.549950838E0
1.465133318E1,2.493919373E0,-2.404786795E-1,1.046859860E0
1.466127141E1,2.446063042E0,-6.861419082E-1,4.097708762E-1
1.467123829E1,1.837687731E0,-1.237089276E0,1.034895778E-1
1.468117657E1,8.745766878E-1,-2.209771633E0,-4.235295951E-1
1.469111480E1,2.374876440E-1,-3.924827337E0,-1.626521230E0
1.470104568E1,-1.316052526E-1,-6.736992359E0,-2.033301115E0
1.471098391E1,-2.129612118E-1,-1.102971554E1,-2.344966173E0
1.472092219E1,-5.240281820E-1,-1.671685791E1,-3.087339401E0
1.473086178E1,-1.717448473E0,-2.252363968E1,-2.929413080E0
1.474080006E1,-3.226721287E0,-2.212583351E1,-2.057229280E0
1.475073829E1,-2.790629387E0,-1.603669739E1,-3.005983353E0
1.476066120E1,1.837687731E0,-1.546182156E1,-4.122235298E0
1.477059943E1,3.476173162E0,-1.813520241E1,-3.580859184E0
1.478053771E1,-7.256234884E-1,-2.148395729E1,-2.565105915E0
1.479051506E1,-7.739584923E0,-2.643769836E1,-3.537788391E0
1.480045334E1,-1.414038563E1,-2.987259674E1,-4.917848587E0
1.481039162E1,-1.274596786E1,-2.703171730E1,-2.723630428E0
1.482028761E1,-4.850849628E0,-2.191526413E1,-1.348355532E0
1.483022584E1,1.417747438E-1,-1.922752571E1,-3.996013701E-1
1.484016412E1,2.603989124E0,-1.880579185E1,5.198407173E-1
1.485011704E1,3.275176048E0,-1.884886169E1,3.332005441E-1
1.486005532E1,2.407777786E0,-1.843191338E1,-7.926225066E-1
1.486999355E1,3.523431420E-1,-1.709073639E1,-1.491924882E0
1.487993558E1,-2.407179594E0,-1.469492245E1,-1.204786181E0
1.488987386E1,-3.116053343E0,-1.229492092E1,-1.066002488E0
1.489981214E1,-2.052443504E0,-1.024427223E1,-1.036690354E0
1.490972532E1,-7.686942816E-1,-8.557929993E0,-7.160521746E-1
1.491966355E1,4.001995921E-1,-7.359724045E0,-5.341976285E-1
1.492960183E1,1.334596872E0,-6.334399700E0,-5.964110494E-1
1.493956329E1,1.655833244E0,-5.246861935E0,-7.304090858E-1
1.494950152E1,1.602592945E0,-4.154538155E0,-1.022333503E0
1.495943980E1,1.368096352E0,-3.033500910E0,-1.247856975E0
1.496938475E1,9.894321561E-1,-1.893320918E0,-1.228714466E0
1.497932308E1,5.539384484E-1,-7.962117195E-1,-1.075573802E0
1.498926131E1,-5.503492057E-2,-7.776673883E-2,-8.979067206E-1
1.499917297E1,-7.351947427E-1,3.439682424E-1,-9.888339639E-1
1.500911126E1,-1.055832982E0,5.353940725E-1,-1.568495274E0
1.501904949E1,-6.586244106E-1,5.736792088E-1,-2.230110645E0
1.502898256E1,-1.196411345E-2,2.769692242E-1,-2.541177750E0
1.503892084E1,3.379862010E-1,-1.447657645E-1,-2.407179594E0
1.504885907E1,3.954139352E-1,-4.654040039E-1,-2.023729801E0
1.505882912E1,3.858426511E-1,-6.047859192E-1,-1.664806366E0
1.506876745E1,3.619144261E-1,-6.430711150E-1,-1.281356573E0
1.507870568E1,3.188436031E-1,-6.478567123E-1,-9.361918569E-1
1.508862146E1,2.183450609E-1,-8.105686903E-1,-6.921239495E-1
1.509855969E1,-1.172483116E-1,-1.385444283E0,-7.591229677E-1
1.510849797E1,-3.086741269E-1,-2.933002472E0,-8.069794178E-1
1.511844902E1,-4.139583111E-1,-5.132006168E0,-5.724828243E-1
1.512838730E1,-2.081755698E-1,-8.615358353E0,-9.601200819E-1
1.513832558E1,6.831508875E-1,-1.464227962E1,-1.506281853E0
1.514823933E1,1.387238979E0,-2.302194405E1,-1.448854089E0
1.515817761E1,3.762713671E-1,-2.643291283E1,-6.586244106E-1
1.516811589E1,-2.958127022E0,-1.951466560E1,-1.367498159E0
1.517806167E1,-1.966302037E0,-1.311865044E1,-2.392822742E0
1.518799980E1,2.245065928E0,-1.320957756E1,-2.632104874E0
1.519793797E1,2.062613010E0,-1.652483368E1,-3.159124136E0
1.520785876E1,-1.314856052E0,-2.164666939E1,-4.515256405E0
1.521779693E1,-6.297310829E0,-2.835435104E1,-5.679364681E0
1.522773511E1,-8.462815285E0,-2.891008377E1,-2.675773859E0
1.523770193E1,-5.808577061E0,-2.305065918E1,-8.931210637E-1
1.524764006E1,-1.377069473E0,-1.951945114E1,-1.362712502E0
1.525757824E1,1.751546144E0,-1.877229118E1,-9.122636318E-1
1.526753204E1,3.428316593E0,-1.872443581E1,1.513460279E-1
1.527747016E1,2.958725214E0,-1.904507446E1,-2.632104978E-2
1.528740834E1,6.496513486E-1,-1.863769531E1,-1.420140266E0
1.529732855E1,-2.100300074E0,-1.691306877E1,-1.717448473E0
1.530726667E1,-3.600001574E0,-1.399083424E1,-1.467996716E0
1.531720485E1,-3.317648649E0,-1.074736309E1,-1.865803480E0
1.532714813E1,-2.608176708E0,-8.050053596E0,-1.956730723E0
1.533708626E1,-1.731805444E0,-6.435496330E0,-1.774876237E0
1.534702443E1,-9.744769931E-1,-5.352744102E0,-1.463211060E0
1.535693027E1,-5.629115105E-1,-4.231706619E0,-1.036690354E0
1.536686844E1,-3.565305769E-1,-3.143570662E0,-7.399803996E-1
1.537680662E1,-3.589234129E-2,-2.243271112E0,-5.437689424E-1
1.538674511E1,5.294120312E-1,-1.337587833E0,-2.129612118E-1
1.539668329E1,1.124028444E0,-8.871390224E-1,4.127619043E-2
1.540662146E1,9.655039310E-1,-6.813562512E-1,3.170489892E-2
1.541660131E1,-9.332008660E-2,-4.851447940E-1,-6.442674994E-1
1.542653943E1,-7.926225066E-1,-3.744767308E-1,-1.467996716E0
1.543647761E1,-8.213363886E-1,-1.304088384E-1,-2.464607239E0
1.544640485E1,-3.804588020E-1,-2.644068897E-1,-3.604787350E0
1.545634303E1,-5.024927482E-2,-6.478567123E-1,-4.285545349E0
1.546628115E1,-1.172483116E-1,-9.302098155E-1,-3.887738705E0
1.547618485E1,-2.656033039E-1,-9.493523836E-1,-2.608176708E0
1.548612303E1,-3.469592929E-1,-9.158528447E-1,-1.650449395E0
1.549606120E1,-3.278166950E-1,-9.014959335E-1,-9.218349457E-1
1.550600766E1,-1.555334777E-1,-1.079162955E0,-3.110669367E-2
1.551594584E1,7.477571070E-2,-1.433300734E0,7.262216806E-1
1.552588402E1,3.140579760E-1,-2.209771633E0,4.671986103E-1
1.553582224E1,6.927221417E-1,-3.709473372E0,-6.107679605E-1
1.554576042E1,1.056431174E0,-6.430710793E0,-1.171286702E0
1.555569860E1,1.234098315E0,-1.063190937E1,-1.333998680E0
1.556563568E1,1.401595831E0,-1.727259064E1,-1.348355532E0
1.557557386E1,1.214955688E0,-2.510130692E1,-2.526820660E0
1.558551204E1,-1.386640668E0,-2.694557571E1,-2.143969059E0
1.559548850E1,-6.302096844E0,-1.879143524E1,-2.847459018E-1
1.560542662E1,-5.851647854E0,-1.497787380E1,5.341976285E-1
1.561536480E1,-1.736590981E0,-1.740658760E1,-2.895315289E-1
1.562527214E1,-1.530210137E0,-2.133500481E1,-3.217149973E0
1.563521032E1,-3.025125980E0,-2.564268303E1,-4.601397991E0
1.564514850E1,-5.377869129E0,-2.694079018E1,-3.959523201E0
1.565508402E1,-5.200201988E0,-2.436312103E1,-2.680559635E0
1.566502214E1,-1.276570916E0,-2.116750717E1,-1.722234130E0
1.567496032E1,2.014756680E0,-1.871007919E1,-1.636092424E0
1.568492089E1,3.888336897E0,-1.776610947E1,-1.329213023E0
1.569485912E1,3.835694790E0,-1.803410530E1,-7.304090858E-1
1.570479730E1,2.139183521E0,-1.819263077E1,-8.691928387E-1
1.571470683E1,-7.016952634E-1,-1.707637787E1,-1.329213023E0
1.572464506E1,-3.724428415E0,-1.441256905E1,-1.070788145E0
1.573458329E1,-5.032704353E0,-1.141795158E1,-7.591229677E-1
1.574452782E1,-4.548755646E0,-9.099306107E0,-7.974081635E-1
1.575446600E1,-3.590430260E0,-7.369295597E0,-5.581258535E-1
1.576440422E1,-2.569891453E0,-6.037689686E0,-1.698904037E-1
1.577433803E1,-1.640878081E0,-4.753940582E0,-1.172483116E-1
1.578427620E1,-7.974081635E-1,-3.464807272E0,-2.943171859E-1
1.579421443E1,-7.417750359E-2,-2.338984251E0,-3.852444589E-1
1.580418516E1,6.592226624E-1,-1.553540111E0,-4.953143001E-1
1.581412334E1,1.267597795E0,-9.684949517E-1,-8.021938205E-1
1.582406157E1,1.272383451E0,-5.377869010E-1,-1.621735573E0
1.583398360E1,5.730810165E-1,-1.495514214E-1,-2.507678032E0
1.584392178E1,3.188436031E-1,9.990034252E-2,-2.848057270E0
1.585386001E1,3.714857101E-1,2.673979402E-1,-2.709273338E0
1.586377730E1,4.959124923E-1,2.482553422E-1,-1.832303882E0
1.587371553E1,2.901297510E-1,9.032905847E-2,-6.969096065E-1
1.588365376E1,-1.507478207E-1,6.580262631E-2,-9.810572863E-2
1.589361652E1,-2.895315289E-1,-5.982056726E-3,1.256231871E-2
1.590355475E1,-2.656033039E-1,-2.213360965E-1,2.039881349E-1
1.591349292E1,-3.421736360E-1,-4.462614357E-1,8.793623447E-1
1.592341271E1,-4.235295951E-1,-6.191428304E-1,1.109671474E0
1.593335089E1,-2.273181528E-1,-8.679963946E-1,9.080761671E-1
1.594328912E1,9.870393574E-2,-1.308874011E0,8.362914920E-1
1.595325240E1,4.049852192E-1,-2.434697151E0,-2.943171859E-1
1.596319058E1,2.901297510E-1,-4.801796913E0,-2.411965132E0
1.597312881E1,-4.905286431E-1,-8.993423462E0,-3.561716557E0
1.598304844E1,-1.496710539E0,-1.451306725E1,-4.314259052E0
1.599298662E1,-1.999801517E0,-2.080319977E1,-4.232305050E0
1.600292485E1,-2.114656925E0,-2.550330162E1,-3.733999729E0
1.601288074E1,-3.556930780E0,-2.227897263E1,-3.360719442E0
1.602281891E1,-2.277967215E0,-1.391426373E1,-2.589034081E0
1.603275719E1,1.564307809E0,-1.004267693E1,-1.597807288E0
1.604268542E1,1.066002488E0,-1.057926750E1,-8.739784956E-1
1.605262360E1,-1.951945066E0,-1.458485222E1,-2.560320199E-1
1.606256178E1,-2.972483873E0,-1.994597054E1,1.130608693E-1
1.607248964E1,-2.081157446E0,-2.513480759E1,-2.714059114E0
1.608242782E1,-2.311466694E0,-2.724766922E1,-4.381258488E0
1.609236605E1,-4.811966419E0,-2.633241463E1,-3.135195971E0
1.610230141E1,-6.340381622E0,-2.494756889E1,-2.282752752E0
1.611223959E1,-5.440082073E0,-2.386481667E1,-1.827518344E0
1.612217782E1,-3.768097401E0,-2.239382935E1,-1.736590981E0
1.613212657E1,-2.066800594E0,-2.090429688E1,-1.894517303E0
1.614206480E1,-5.581258535E-1,-1.927059746E1,-1.870589137E0
1.615200297E1,3.858426511E-1,-1.698963928E1,-2.038086653E0
1.616192131E1,1.100100160E0,-1.441256905E1,-2.301895380E0
1.617185954E1,1.885544300E0,-1.206461143E1,-2.071586132E0
1.618179777E1,2.120040894E0,-1.004746246E1,-1.333998680E0
1.619174683E1,1.694118381E0,-8.227122307E0,-7.639086246E-1
1.620168490E1,1.076171994E0,-6.378068924E0,-5.144568682E-1
1.621162308E1,6.879364848E-1,-4.504488468E0,-1.842473447E-1
1.622157501E1,5.682953596E-1,-2.606980324E0,6.999006122E-2
1.623151313E1,6.161518097E-1,-8.775677085E-1,1.274178028E-1
1.624145126E1,7.262216806E-1,4.013960063E-1,-7.178467698E-3
1.625136787E1,5.341976285E-1,1.081555843E0,-3.086741269E-1
1.626130600E1,-1.794617027E-1,1.388435364E0,-8.452646136E-1
1.627124412E1,-8.835497499E-1,1.441077471E0,-1.549352646E0
1.628118469E1,-6.681957245E-1,1.225723386E0,-1.889731646E0
1.629112282E1,-1.220339537E-1,6.699903607E-1,-1.650449395E0
1.630106100E1,1.322034448E-1,-2.261217386E-1,-1.233500123E0
1.631100922E1,3.475574851E-1,-1.069591761E0,-9.457631707E-1
1.632094730E1,4.624129832E-1,-1.821536183E0,-8.213363886E-1
1.633088542E1,2.805584669E-1,-2.281556368E0,-7.256234884E-1
1.634082547E1,-9.332008660E-2,-2.358126640E0,-6.825526357E-1
1.635076355E1,-4.043870270E-1,-2.166700840E0,-4.474578202E-1
1.636070172E1,-7.591229677E-1,-1.989033818E0,-1.603191197E-1
1.637063058E1,-9.409775138E-1,-2.137987137E0,-2.943171859E-1
1.638056876E1,-9.122636318E-1,-2.947359324E0,-8.739784956E-1
1.639050688E1,-9.649057388E-1,-4.403990269E0,-2.023729801E0
1.640043318E1,-9.026923180E-1,-6.315257072E0,-3.058625460E0
1.641037126E1,-1.017547846E0,-8.581858635E0,-3.063411236E0
1.642030943E1,-8.500502706E-1,-1.203589821E1,-1.534995675E0
1.643024610E1,3.427718580E-1,-1.803889084E1,9.870393574E-2
1.644018428E1,1.406381488E0,-2.293520546E1,8.841479421E-1
1.645012235E1,7.166503668E-1,-2.181895256E1,-1.602592945E0
1.646006797E1,8.913264424E-2,-1.656371689E1,-5.003990173E0
1.647000610E1,3.667000830E-1,-1.384188080E1,-3.053839922E0
1.647994422E1,-4.331009090E-1,-1.504965782E1,-8.261220455E-1
1.648987938E1,-3.015554667E0,-1.834098625E1,-5.724828243E-1
1.649981756E1,-5.209773064E0,-2.245664024E1,-6.538388133E-1
1.650975563E1,-5.056632519E0,-2.509173584E1,-1.281356573E0
1.651969391E1,-3.528217077E0,-2.470350075E1,-1.558923960E0
1.652963204E1,-2.085943222E0,-2.266720963E1,-1.961516380E0
1.653957021E1,8.434699476E-2,-2.154138565E1,-1.592423439E0
1.654954584E1,1.818545222E0,-2.052084732E1,-9.888339639E-1
1.655948396E1,1.679761529E0,-1.934716797E1,-1.410568953E0
1.656942209E1,-1.674975827E-2,-1.817348862E1,-1.822732687E0
1.657933954E1,-2.047657967E0,-1.641476250E1,-1.717448473E0
1.658927761E1,-3.001197815E0,-1.388554955E1,-1.420140266E0
1.659921579E1,-2.617748022E0,-1.124088287E1,-1.319641709E0
1.660913027E1,-1.636092424E0,-8.998209953E0,-1.343569875E0
1.661906844E1,-6.729813814E-1,-7.115656376E0,-1.080359459E0
1.662900652E1,-2.632104978E-2,-5.563312531E0,-6.394818425E-1
1.663898412E1,3.571287692E-1,-4.246063709E0,-3.469592929E-1
1.664892224E1,6.687939167E-1,-2.904288530E0,-3.373879790E-1
1.665886037E1,1.147956610E0,-1.725823283E0,-5.916253924E-1
1.666876245E1,1.761117458E0,-8.775677085E-1,-1.123430252E0
1.667870063E1,2.019542217E0,-4.654040039E-1,-1.808375716E0
1.668863876E1,1.444666624E0,-4.319044948E-1,-2.388036966E0
1.669861360E1,5.443671346E-1,-6.622136831E-1,-2.824128866E0
1.670855183E1,7.477571070E-2,-6.526423693E-1,-3.068196774E0
1.671849006E1,-7.417750359E-2,-3.649054468E-1,-3.173480988E0
1.672841745E1,5.563312769E-2,-1.830509305E-1,-3.207578659E0
1.673835568E1,1.513460279E-1,-2.404786795E-1,-3.308077335E0
1.674829386E1,7.477571070E-2,-3.361915946E-1,-3.308077335E0
1.675824042E1,1.734796353E-2,-4.414757788E-1,-3.135195971E0
1.676817860E1,-7.417750359E-2,-6.669993401E-1,-2.867199659E0
1.677811683E1,-5.024927482E-2,-9.828519225E-1,-2.316252232E0
1.678805037E1,9.391828626E-2,-1.476371527E0,-1.152144074E0
1.679798855E1,3.649054468E-2,-2.329412937E0,-7.417750359E-2
1.680792678E1,-6.939185411E-2,-3.594019651E0,1.992024779E-1
1.681784464E1,3.332005441E-1,-6.382854462E0,4.289134443E-1
1.682778282E1,1.085743308E0,-1.147537899E1,9.128618240E-1
1.683772105E1,1.372882009E0,-1.746880150E1,8.458628058E-1
1.684764594E1,-6.460621208E-2,-2.048734665E1,-6.107679605E-1
1.685758417E1,-3.303291559E0,-1.858505440E1,-4.107878208E0
1.686752240E1,-6.062814236E0,-1.583031654E1,-6.541976929E0
1.687748678E1,-3.902095556E0,-1.648654747E1,-3.499503136E0
1.688742495E1,4.480560422E-1,-1.747837257E1,-1.003190875E0
1.689736318E1,5.826523304E-1,-1.858983994E1,-3.619144201E0
1.690728058E1,-3.284149170E0,-2.453061867E1,-5.588437080E0
1.691721881E1,-6.637690067E0,-3.154517937E1,-2.809772015E0
1.692715704E1,-4.170091629E0,-2.876112938E1,1.578664780E0
1.693710506E1,-7.417750359E-2,-2.071705818E1,6.161518097E-1
1.694704324E1,2.724228621E0,-1.664985847E1,-3.852444589E-1
1.695698146E1,4.702494621E0,-1.508794308E1,3.188436031E-1
1.696693771E1,4.467998028E0,-1.427797318E1,7.788637877E-1
1.697687589E1,2.302493572E0,-1.504487228E1,6.041877344E-2
1.698681412E1,-5.868397355E-1,-1.669292831E1,-1.515853167E0
1.699674256E1,-3.738785267E0,-1.716252136E1,-2.478964329E0
1.700668074E1,-6.494120598E0,-1.540858173E1,-2.392822742E0
1.701661896E1,-7.231708050E0,-1.202632618E1,-2.335394859E0
1.702654745E1,-6.077171326E0,-8.725427628E0,-2.153540373E0
1.703648563E1,-4.093521118E0,-6.464210510E0,-1.908874273E0
1.704642386E1,-2.287538528E0,-5.098506927E0,-1.894517303E0
1.705636469E1,-1.434497118E0,-3.814757586E0,-1.904088616E0
1.706630287E1,-1.046261668E0,-2.655434847E0,-1.597807288E0
1.707624110E1,-3.756731451E-1,-2.075773716E0,-1.075573802E0
1.708618881E1,4.145565331E-1,-2.104487419E0,-8.644071817E-1
1.709612704E1,7.357929349E-1,-2.181057930E0,-1.142572761E0
1.710606521E1,2.566302419E-1,-1.945963025E0,-1.899302959E0
1.711597449E1,1.896311939E-1,-1.533799291E0,-2.397608280E0
1.712591271E1,4.193421602E-1,-8.344969153E-1,-2.938984394E0
1.713585094E1,3.714857101E-1,-2.117647976E-1,-3.873381615E0
1.714579266E1,4.576273263E-1,-1.076770201E-2,-4.524827480E0
1.715573089E1,8.985049129E-1,-3.469592705E-2,-4.179663181E0
1.716566912E1,1.205384374E0,-2.512463741E-2,-2.733201742E0
1.717563199E1,1.027717352E0,9.511470050E-2,-1.128215909E0
1.718557016E1,9.176474810E-1,4.061816335E-1,4.336991012E-1
1.719550839E1,1.348953724E0,3.535395563E-1,1.617548108E0
1.720543141E1,1.607976794E0,3.589233849E-3,1.952543259E0
1.721536948E1,1.387238979E0,-4.319044948E-1,1.238883972E0
1.722530761E1,1.181456208E0,-1.615753531E0,4.863412082E-1
1.723524402E1,6.257231236E-1,-4.437489510E0,-3.110669367E-2
1.724518214E1,-3.613162339E-1,-9.190233231E0,-1.051047325E0
1.725512016E1,-7.639086246E-1,-1.640040588E1,-3.312862873E0
1.726506402E1,-2.665604353E0,-2.603032112E1,-7.548159122E0
1.727500209E1,-6.819544315E0,-3.088356400E1,-6.805187702E0
1.728494016E1,-1.145264721E1,-2.272942162E1,-1.803590059E0
1.729488245E1,-8.089534760E0,-1.231406307E1,1.655833244E0
1.730482053E1,-3.182454109E-1,-1.101535892E1,-3.038884699E-1
1.731475860E1,-2.800200701E0,-1.575374603E1,-4.812564373E0
1.732470365E1,-9.172286987E0,-2.310808563E1,-5.157131195E0
1.733464172E1,-9.588638306E0,-2.740081024E1,-1.477568030E0
1.734457980E1,-4.352544308E0,-2.517787743E1,-5.533402562E-1
1.735453339E1,9.798609018E-1,-2.049213219E1,-3.777668715E0
1.736447146E1,4.990231514E0,-1.846541214E1,-2.771486759E0
1.737440959E1,7.433303356E0,-1.794796371E1,8.937192559E-1
1.738430146E1,7.165307522E0,-1.747358704E1,1.942971945E0
1.739423959E1,4.338785648E0,-1.697528267E1,2.691925503E-2
1.740417766E1,1.253240824E0,-1.722951889E1,-1.846660852E0
1.741414141E1,-2.153540373E0,-1.680299950E1,-1.525424480E0
1.742407948E1,-4.792823792E0,-1.463749409E1,-7.926225066E-1
1.743401756E1,-4.936991215E0,-1.187318611E1,-9.601200819E-1
1.744396433E1,-2.761915445E0,-9.985248566E0,-1.055832982E0
1.745390240E1,-1.448854089E0,-8.308478355E0,-1.161715388E0
1.746384053E1,-3.421736360E-1,-6.348756790E0,-2.416750908E0
1.747377995E1,8.793623447E-1,-4.964509010E0,-2.047657967E0
1.748371803E1,7.262216806E-1,-3.680759430E0,-1.386640668E0
1.749365610E1,-1.746760458E-1,-2.224128723E0,-1.061216831E0
1.750358256E1,-9.505487680E-1,-9.684949517E-1,-5.916253924E-1
1.751352063E1,-2.052443504E0,1.286142170E-1,-3.469592929E-1
1.752345870E1,-3.092125177E0,8.470591903E-1,-6.460621208E-2
1.753340646E1,-3.236292601E0,1.225723386E0,-5.503492057E-2
1.754334454E1,-2.550748825E0,1.163509965E0,-4.618147612E-1
1.755328261E1,-1.511067510E0,5.832505226E-1,-1.099501967E0
1.756322459E1,-5.240281820E-1,-1.208375469E-1,-2.277967215E0
1.757316266E1,-2.153540403E-2,-5.808576941E-1,-3.365504980E0
1.758310079E1,4.001995921E-1,-6.574280262E-1,-3.413361549E0
1.759300964E1,1.042074203E0,-9.062815905E-1,-2.857628345E0
1.760294777E1,1.468594909E0,-1.347159147E0,-2.445464849E0
1.761288584E1,2.216351986E0,-1.874178290E0,-1.999801517E0
1.762283152E1,3.236890793E0,-2.472982168E0,-1.424925923E0
1.763276954E1,3.720241070E0,-3.594019651E0,-1.377069473E0
1.764270766E1,3.126222849E0,-6.190830231E0,-2.014158487E0
1.765264230E1,1.909472466E0,-1.123609734E1,-2.220539331E0
1.766258042E1,6.783652306E-1,-1.682692719E1,-1.204786181E0
1.767251850E1,-7.686942816E-1,-1.908335876E1,3.858426511E-1
1.768248980E1,-3.729214191E0,-1.754537201E1,8.697910309E-1
1.769242787E1,-6.019743443E0,-1.476192093E1,-3.230310678E-1
1.770236600E1,-4.074378967E0,-1.562453365E1,-3.308077335E0
1.771226402E1,2.614158690E-1,-1.937109566E1,-7.461419106E0
1.772220209E1,1.372882009E0,-2.345743942E1,-7.423133850E0
1.773214011E1,-2.632104874E0,-2.855056190E1,-4.898705959E0
1.774209084E1,-6.455835342E0,-2.907758141E1,-2.129014015E0
1.775202886E1,-5.991029739E0,-2.250928307E1,-8.691928387E-1
1.776196688E1,-3.652643681E0,-1.881536293E1,-5.144568682E-1
1.777189308E1,-1.990230203E0,-1.774696732E1,6.017948985E-1
1.778183115E1,-1.520638824E0,-1.598345661E1,1.181456208E0
1.779176922E1,-1.357926846E0,-1.502094460E1,4.193421602E-1
1.780171058E1,-7.495517135E-1,-1.657328796E1,-9.744769931E-1
1.781164865E1,-3.804588020E-1,-1.871007919E1,-2.450250387E0
1.782158672E1,-2.114656925E0,-1.808674812E1,-3.010769129E0
1.783151886E1,-4.677968502E0,-1.507358646E1,-2.675773859E0
1.784145693E1,-4.960919380E0,-1.199761295E1,-2.038086653E0
1.785139495E1,-3.825525284E0,-9.645467758E0,-1.650449395E0
1.786135698E1,-2.574677229E0,-7.762316704E0,-1.429711580E0
1.787129501E1,-1.262213945E0,-6.435496330E0,-1.123430252E0
1.788123303E1,-7.417750359E-2,-5.477170944E0,-7.830511928E-1
1.789114652E1,6.400800347E-1,-4.389633179E0,-1.986042857E-1
1.790108459E1,9.942178130E-1,-3.023929596E0,3.475574851E-1
1.791102261E1,1.526022673E0,-1.749751568E0,3.571287692E-1
1.792096438E1,2.192423820E0,-5.665007830E-1,-4.522434771E-1
1.793090245E1,2.934797049E0,2.482553422E-1,-1.262213945E0
1.794084053E1,3.313461065E0,5.976074338E-1,-1.621735573E0
1.795081037E1,2.603989124E0,9.523434043E-1,-1.889731646E0
1.796074844E1,1.286740422E0,9.475577474E-1,-1.587637782E0
1.797068646E1,3.170489892E-2,5.162515044E-1,-1.022333503E0
1.798062365E1,-9.601200819E-1,3.708875179E-2,-7.399803996E-1
1.799056167E1,-1.295713425E0,-4.803591371E-1,-7.351947427E-1
1.800049975E1,-9.314061999E-1,-1.016949654E0,-1.089930773E0
1.801041563E1,-5.144568682E-1,-1.490728498E0,-1.568495274E0
1.802035365E1,-3.326023519E-1,-1.730608940E0,-1.554138303E0
1.803029172E1,-2.703889608E-1,-1.859821439E0,-1.276570916E0
1.804022089E1,-1.411765367E-1,-2.444268227E0,-1.434497118E0
1.805015896E1,2.691925503E-2,-4.130609989E0,-2.066800594E0
1.806009704E1,-2.321037948E-1,-7.091728210E0,-2.728415966E0
1.807003042E1,-1.109073281E0,-1.092921734E1,-2.828914642E0
1.807996850E1,-2.215753794E0,-1.489591885E1,-1.377069473E0
1.808990652E1,-3.446861029E0,-1.714337730E1,2.422732860E-1
1.809986584E1,-4.634897232E0,-1.580160236E1,2.662015259E-1
1.810980386E1,-4.783252239E0,-1.262991619E1,-1.875374794E0
1.811974188E1,-2.426322222E0,-1.192582798E1,-4.419543266E0
1.812969699E1,8.889335990E-1,-1.360738373E1,-5.559723377E0
1.813963506E1,2.997010469E0,-1.498744488E1,-3.245863914E0
1.814957308E1,4.046263218E0,-1.581117344E1,-4.331009090E-1
1.815948308E1,2.886940479E0,-1.763689804E1,-4.187439680E-1
1.816942115E1,7.884350419E-1,-2.102872276E1,-2.167897224E0
1.817935922E1,-1.190429211E0,-2.392703056E1,-3.868596077E0
1.818930204E1,-4.246662140E0,-2.423390961E1,-2.972483873E0
1.819924011E1,-5.755934715E0,-2.217847443E1,-1.515853167E0
1.820917813E1,-4.807180882E0,-1.935673904E1,-6.825526357E-1
1.821912344E1,-2.996412039E0,-1.876272011E1,5.084748194E-2
1.822906157E1,-1.655235052E0,-2.064048767E1,-9.332008660E-2
1.823899964E1,-1.798804402E0,-2.164188385E1,-6.634100676E-1
1.824891662E1,-3.154338360E0,-1.992682838E1,-1.357926846E0
1.825885480E1,-3.878167391E0,-1.702792358E1,-1.789233088E0
1.826879287E1,-3.212364435E0,-1.443649769E1,-2.076371908E0
1.827874058E1,-1.985444546E0,-1.231884956E1,-2.009372711E0
1.828867870E1,-9.122636318E-1,-1.035912704E1,-1.578066587E0
1.829861688E1,-1.698904037E-1,-8.461619377E0,-9.505487680E-1
1.830856490E1,3.427718580E-1,-6.885347366E0,-3.996013701E-1
1.831850303E1,7.884350419E-1,-5.587240696E0,-1.459621787E-1
1.832844115E1,1.195813060E0,-4.255635262E0,-1.220339537E-1
1.833836818E1,1.521237016E0,-2.751147747E0,-1.363908947E-1
1.834830626E1,1.794616938E0,-1.155733347E0,-3.804588020E-1
1.835824438E1,1.938186288E0,1.764706671E-1,-8.500502706E-1
1.836817324E1,1.588235974E0,1.057627559E0,-1.185643673E0
1.837811141E1,6.161518097E-1,1.388435364E0,-1.636092424E0
1.838804948E1,-2.273181528E-1,1.211366415E0,-2.100300074E0
1.839799360E1,-7.016952634E-1,9.044869542E-1,-2.416750908E0
1.840793172E1,-1.128215909E0,4.827519655E-1,-2.411965132E0
1.841786990E1,-1.314856052E0,-3.469592705E-2,-2.187039852E0
1.842781475E1,-6.442674994E-1,-6.143572330E-1,-1.698305845E0
1.843775287E1,-1.028913707E-1,-1.112662554E0,-1.372283816E0
1.844769100E1,-9.810572863E-2,-1.462014675E0,-1.219143152E0
1.845765094E1,3.649054468E-2,-1.601396561E0,-1.022333503E0
1.846758902E1,2.997010350E-1,-1.716252089E0,-7.351947427E-1
1.847752714E1,6.257231236E-1,-1.883749604E0,-5.246263742E-1
1.848743068E1,1.008574724E0,-2.267199516E0,-5.389832854E-1
1.849736886E1,1.157527924E0,-3.124428272E0,-7.208378315E-1
1.850730698E1,1.051645517E0,-4.911866665E0,-1.693520188E0
1.851728303E1,1.109671474E0,-8.112266541E0,-2.742773056E0
1.852722115E1,1.334596872E0,-1.296072388E1,-2.301895380E0
1.853715928E1,8.697910309E-1,-1.882014847E1,-1.362712502E0
1.854705844E1,-1.109073281E0,-2.239861488E1,-1.467996716E0
1.855699657E1,-4.433900356E0,-2.038684845E1,-1.424925923E0
1.856693469E1,-5.516652584E0,-1.580160236E1,-2.368894339E0
1.857688600E1,-1.415354609E0,-1.453221035E1,-3.638286829E0
1.858682407E1,2.762513638E0,-1.633819389E1,-4.927420139E0
1.859676224E1,2.235494614E0,-2.048734665E1,-3.676572084E0
1.860668797E1,-1.515853167E0,-2.530230522E1,-2.081157446E0
1.861662615E1,-6.661618233E0,-2.720400047E1,-1.899302959E0
1.862656428E1,-8.951549530E0,-2.502892494E1,-3.110669367E-2
1.863654756E1,-6.608976364E0,-2.152702904E1,7.884350419E-1
1.864648568E1,-3.882952929E0,-1.853241158E1,5.826523304E-1
1.865642381E1,-2.085943222E0,-1.680299950E1,6.161518097E-1
1.866631756E1,-1.171286702E0,-1.729173279E1,-6.107679605E-1
1.867625574E1,-8.787640929E-1,-1.908335876E1,-1.937588096E0
1.868619381E1,-2.622533560E0,-1.963909149E1,-2.900699139E0
1.869615933E1,-5.080560684E0,-1.750230217E1,-3.279363394E0
1.870609740E1,-5.521438122E0,-1.434497166E1,-3.068196774E0
1.871603553E1,-4.457828522E0,-1.134616661E1,-2.593819857E0
1.872594605E1,-2.857628345E0,-9.031708717E0,-1.880160451E0
1.873588412E1,-1.161715388E0,-7.489534855E0,-1.166501045E0
1.874582214E1,4.432703853E-1,-6.559923172E0,-8.452646136E-1
1.875577469E1,1.741974831E0,-5.894120216E0,-6.825526357E-1
1.876571271E1,2.791227579E0,-5.256433010E0,-6.346961856E-1
1.877565074E1,3.634099483E0,-4.466203690E0,-7.399803996E-1
1.878558511E1,3.873979807E0,-3.369094372E0,-1.012762189E0
1.879552318E1,3.686741590E0,-2.281556368E0,-1.089930773E0
1.880546120E1,2.584846735E0,-7.818548083E-1,-2.646461725E0
1.881541464E1,1.713261008E0,8.374879137E-3,-2.728415966E0
1.882535266E1,4.767699242E-1,3.583251834E-1,-2.852842808E0
1.883529068E1,-4.474578202E-1,3.391826153E-1,-3.120838881E0
1.884523178E1,-1.031904817E0,1.956132501E-1,-2.785843849E0
1.885516980E1,-1.722234130E0,2.721835673E-1,-2.277967215E0
1.886510782E1,-1.899302959E0,2.243271172E-1,-1.247856975E0
1.887502344E1,-1.631306887E0,-1.351944804E-1,-7.896314561E-2
1.888496152E1,-1.022333503E0,-3.888336718E-1,1.130608693E-1
1.889489954E1,-1.794617027E-1,-4.127618968E-1,-2.632104978E-2
1.890483365E1,7.166503668E-1,-4.995017350E-1,1.032503009E0
1.891477172E1,1.363310695E0,-7.627122402E-1,3.256033421E0
1.892470974E1,1.554736495E0,-1.170090318E0,4.692923546E0
1.893467292E1,1.176670551E0,-1.979462504E0,3.404388428E0
1.894461094E1,6.400800347E-1,-3.479164124E0,-3.086741269E-1
1.895454896E1,3.810569942E-1,-6.602993965E0,-4.069592953E0
1.896448324E1,6.257231236E-1,-1.230449200E1,-7.451848030E0
1.897442126E1,1.516451359E0,-2.030070686E1,-7.715656757E0
1.898435928E1,2.752942562E0,-2.660998154E1,-2.450250387E0
1.899428308E1,1.799402595E0,-2.158445740E1,2.067398787E0
1.900422115E1,3.427718580E-1,-1.186840057E1,2.279163599E-1
1.901415917E1,-3.373879790E-1,-1.070907784E1,-2.852842808E0
1.902409532E1,-4.295116425E0,-1.512144279E1,-4.103092670E0
1.903403334E1,-9.512067795E0,-2.100958061E1,-1.980658889E0
1.904397136E1,-1.297627735E1,-2.844527817E1,-7.878368497E-1
1.905392579E1,-1.249711418E1,-3.167439079E1,-1.046261668E0
1.906386381E1,-9.325428009E0,-2.750130844E1,-2.196611166E0
1.907380188E1,-4.836492538E0,-2.128236198E1,-2.565105915E0
1.908375235E1,-6.586244106E-1,-1.761296844E1,-1.348355532E0
1.909369037E1,2.124826431E0,-1.670728683E1,-1.314856052E0
1.910362844E1,4.606781960E0,-1.793360710E1,-8.500502706E-1
1.911356589E1,6.154339790E0,-1.921316910E1,-8.021938205E-1
1.912350391E1,5.378467083E0,-1.880100632E1,-2.254039049E0
1.913344193E1,2.235494614E0,-1.606541061E1,-2.776272535E0
1.914336402E1,-7.543373108E-1,-1.229970646E1,-1.573280931E0
1.915330204E1,-7.351947427E-1,-9.631111145E0,-5.389832854E-1
1.916324006E1,-1.459621787E-1,-7.661818027E0,-3.900300860E-1
1.917319032E1,6.041877344E-2,-5.989833355E0,-4.235295951E-1
1.918312834E1,6.999006122E-2,-4.686343193E0,-1.651047617E-1
1.919306636E1,3.170489892E-2,-3.503092289E0,2.566302419E-1
1.920297542E1,1.178465188E-1,-2.233700037E0,6.448656917E-1
1.921291350E1,1.704886109E-1,-8.632107973E-1,8.745766878E-1
1.922285152E1,1.657029688E-1,2.578266263E-1,9.894321561E-1
1.923278870E1,-1.651047617E-1,1.110269666E0,6.831508875E-1
1.924272678E1,-1.333998680E0,1.656431437E0,1.734796353E-2
1.925266480E1,-2.569891453E0,1.421934843E0,-9.122636318E-1
1.926262704E1,-2.915056229E0,5.736792088E-1,-1.405783296E0
1.927256506E1,-2.651247501E0,-1.830509305E-1,-1.290927768E0
1.928250308E1,-1.544566989E0,-8.727820516E-1,-1.156929731E0
1.929245178E1,-2.273181528E-1,-1.630110383E0,-1.007976532E0
1.930238985E1,3.332005441E-1,-2.185843468E0,-9.074779749E-1
1.931232787E1,6.496513486E-1,-2.525624275E0,-9.792626500E-1
1.932224001E1,1.018146038E0,-2.899502754E0,-1.300499082E0
1.933217808E1,1.027717352E0,-3.622733593E0,-2.402393818E0
1.934211615E1,7.118647099E-1,-4.940580368E0,-3.882952929E0
1.935208079E1,2.901297510E-1,-6.693921566E0,-4.395615101E0
1.936201881E1,-4.546362907E-2,-8.610571861E0,-3.585644722E0
1.937195688E1,3.523431420E-1,-1.178704453E1,-1.061216831E0
1.938188016E1,1.665404558E0,-1.674078560E1,1.660618901E0
1.939181818E1,2.503490686E0,-1.950030899E1,3.404388428E0
1.940175620E1,6.783652306E-1,-1.595474339E1,8.697910309E-1
1.941170381E1,-1.534995675E0,-1.135095215E1,-4.913063049E0
1.942164188E1,-3.255435228E0,-1.231884956E1,-6.402595043E0
1.943157990E1,-6.762116909E0,-1.506401539E1,-3.633501291E0
1.944150672E1,-7.653443336E0,-1.848933983E1,-2.234896421E0
1.945144474E1,-5.578866005E0,-2.546501732E1,-3.724428415E0
1.946138282E1,-2.545963287E0,-2.862713242E1,-2.651247501E0
1.947131662E1,-1.281356573E0,-2.302194405E1,-6.059823632E-1
1.948125464E1,-8.739784956E-1,-1.828834343E1,-1.124626622E-1
1.949119271E1,5.922235847E-1,-1.758365631E1,5.778666735E-1
1.950114172E1,2.302493572E0,-1.872922134E1,1.631905079E0
1.951107974E1,2.872583628E0,-2.158924294E1,3.035295486E0
1.952101777E1,-2.545963287E0,-2.120100594E1,-4.064807415E0
1.953093792E1,-5.612365723E0,-1.927059746E1,-3.370290756E0
1.954087600E1,-4.663611412E0,-1.674078560E1,-8.596215248E-1
1.955081402E1,-2.919841766E0,-1.355474186E1,-8.691928387E-1
1.956077068E1,-7.160521746E-1,-1.139402294E1,-4.091726840E-1
1.957070870E1,8.027920127E-1,-9.544371605E0,-4.426721931E-1
1.958064678E1,1.392024517E0,-7.948956966E0,-6.825526357E-1
1.959057751E1,1.890329838E0,-6.799205780E0,-5.389832854E-1
1.960051553E1,2.374278307E0,-5.716453075E0,-2.847459018E-1
1.961045355E1,2.853441000E0,-4.289134502E0,-2.273181528E-1
1.962039172E1,3.433102369E0,-2.717648268E0,-4.666004181E-1
1.963032974E1,3.883551121E0,-1.318445325E0,-9.505487680E-1
1.964026777E1,3.864408493E0,-3.553341627E-1,-1.161715388E0
1.965022422E1,2.536990166E0,1.333998591E-1,-1.319641709E0
1.966016230E1,5.246263742E-1,1.094716340E-1,-1.899302959E0
1.967010032E1,-6.681957245E-1,-9.690931439E-2,-2.258824587E0
1.968002230E1,-1.650449395E0,-1.064806059E-1,-2.225325108E0
1.968996032E1,-2.187039852E0,-2.452643216E-1,-1.841875196E0
1.969989839E1,-2.052443504E0,-4.223332107E-1,-1.104287624E0
1.970982646E1,-1.597209096E0,-6.047859192E-1,-3.900300860E-1
1.971976454E1,-1.281356573E0,-6.382854581E-1,1.896311939E-1
1.972970256E1,-8.021938205E-1,-5.234299302E-1,4.863412082E-1
1.973965579E1,-2.033899277E-1,-4.462614357E-1,4.480560422E-1
1.974959391E1,2.757728100E-1,-3.553341627E-1,3.858426511E-1
1.975953204E1,5.246263742E-1,-3.888336718E-1,1.896311939E-1
1.976946740E1,4.767699242E-1,-1.064806104E0,-6.394818425E-1
1.977940558E1,-1.076770201E-1,-2.933002472E0,-1.554138303E0
1.978934370E1,-9.840483069E-1,-5.429314613E0,-1.640878081E0
1.979926792E1,-1.746162295E0,-8.696713448E0,-2.694916487E0
1.980920610E1,-1.923231244E0,-1.379402447E1,-3.973880291E0
1.981914428E1,-1.999801517E0,-2.156531334E1,-4.160520554E0
1.982908464E1,-2.402393818E0,-2.621277428E1,-2.522035122E0
1.983902277E1,-3.125624657E0,-1.989811516E1,-2.033899277E-1
1.984896089E1,-9.361918569E-1,-1.117866898E1,-9.984052777E-1
1.985890365E1,2.273779631E0,-9.448657990E0,-2.081157446E0
1.986884178E1,9.750752449E-1,-1.280758286E1,-1.961516380E0
1.987877990E1,-1.204786181E0,-2.001775551E1,-2.522035122E0
1.988871136E1,-2.627319336E0,-2.757787895E1,-4.194019794E0
1.989864954E1,-4.744967461E0,-2.975295448E1,-3.298506021E0
1.990858771E1,-5.933601856E0,-2.473221397E1,-1.041476011E0
1.991856365E1,-3.580859184E0,-2.029592133E1,-1.109073281E0
1.992850183E1,3.170489892E-2,-1.914557266E1,-6.969096065E-1
1.993844001E1,2.192423820E0,-1.936631012E1,-8.165507317E-1
1.994836459E1,1.607976794E0,-2.005125618E1,-1.655235052E0
1.995830271E1,-1.300499082E0,-2.016611099E1,-2.196611166E0
1.996824089E1,-4.295116425E0,-1.893021774E1,-2.090728760E0
1.997816251E1,-4.831707001E0,-1.645783424E1,-1.947159410E0
1.998810063E1,-3.705285788E0,-1.349731445E1,-1.961516380E0
1.999803876E1,-2.273181438E0,-1.095314598E1,-1.841875196E0
2.000799547E1,-1.137787223E0,-9.180662155E0,-1.660020709E0
2.001793365E1,-4.905286431E-1,-7.915457249E0,-1.362712502E0
2.002787178E1,-3.086741269E-1,-6.948158741E0,-9.218349457E-1
2.003780662E1,-3.373879790E-1,-5.989833355E0,-6.825526357E-1
2.004774475E1,-3.421736360E-1,-4.878366947E0,-5.868397355E-1
2.005768292E1,-2.512463629E-1,-3.512663603E0,-5.629115105E-1
2.006759620E1,-1.698904037E-1,-1.936391711E0,-5.389832854E-1
2.007753438E1,-1.507478207E-1,-4.995017350E-1,-4.953143001E-1
2.008747251E1,-3.517449200E-1,4.061816335E-1,-4.187439680E-1
