"Time (s)","Gyroscope x (rad/s)","Gyroscope y (rad/s)","Gyroscope z (rad/s)"
7.192813100E-2,-1.081344724E0,-5.320838690E-1,2.260957062E-1
8.191740100E-2,-1.020626426E0,-5.501928329E-1,2.527265251E-1
9.175229700E-2,-6.477948427E-1,-6.354115009E-1,2.591179311E-1
1.017416200E-1,-1.332872808E-1,-6.183677912E-1,1.675078869E-1
1.117308910E-1,-3.328853287E-3,-4.873441160E-1,1.280942708E-1
1.215656830E-1,-2.110492885E-1,-4.255605936E-1,1.142462417E-1
1.315550060E-1,-4.901403487E-1,-2.934716940E-1,8.228924870E-2
1.415442760E-1,-6.914693713E-1,-1.177082509E-1,4.500609636E-2
1.513754740E-1,-7.521876693E-1,-2.636451721E-1,2.476666868E-2
1.613647970E-1,-7.671009302E-1,-9.603075981E-1,-7.190322969E-3
1.713540680E-1,-8.278192282E-1,-1.700644493E0,-6.684337556E-2
1.812138600E-1,-8.959941268E-1,-1.916886806E0,-1.275616586E-1
1.912031310E-1,-8.576457500E-1,-1.504641652E0,-1.030612960E-1
2.011924010E-1,-7.521876693E-1,-8.410014510E-1,6.844121963E-2
2.110024530E-1,-5.828156471E-1,-4.170387387E-1,3.006620109E-1
2.209917760E-1,-3.005288541E-1,-4.884093404E-1,4.135767221E-1
2.309810470E-1,6.910699606E-2,-7.898702621E-1,3.091838956E-1
2.408190680E-1,3.663070202E-1,-7.738918066E-1,1.091863867E-2
2.508083910E-1,5.111786723E-1,-4.053211510E-1,-3.683043122E-1
2.607976620E-1,7.508561015E-1,-1.944050342E-1,-6.963961124E-1
2.706354740E-1,1.136470437E0,-2.977326214E-1,-8.476591706E-1
2.806247970E-1,1.411300659E0,-4.543218911E-1,-7.155702710E-1
2.906140680E-1,1.490127802E0,-6.599118710E-1,-4.758928418E-1
3.004585990E-1,1.590259790E0,-7.653699517E-1,-3.374125659E-1
3.104478700E-1,1.825676203E0,-7.003906965E-1,-3.501953483E-1
3.204371410E-1,1.940854549E0,-4.820179343E-1,-4.545882046E-1
3.302764640E-1,1.896114826E0,-2.892107666E-1,-6.314168572E-1
3.402657350E-1,1.777740717E0,-1.858831644E-1,-8.721595407E-1
3.502550060E-1,1.596651196E0,-1.624480337E-1,-1.109706521E0
3.600876620E-1,1.327147245E0,-1.336867511E-1,-1.222621202E0
3.700769330E-1,1.002251148E0,-6.444659829E-2,-1.175750971E0
3.800662030E-1,7.487256527E-1,-1.155777797E-1,-1.059640527E0
3.898802140E-1,6.081148982E-1,-2.167749256E-1,-9.488562942E-1
3.998695370E-1,4.525908828E-1,-2.604494691E-1,-7.954627872E-1
4.098588080E-1,3.577851355E-1,-2.998631001E-1,-6.495258212E-1
4.197132350E-1,3.790898025E-1,-3.467333615E-1,-5.685681105E-1
4.297025060E-1,4.323514402E-1,-3.520595133E-1,-5.046541691E-1
4.396917760E-1,4.259600639E-1,-3.243634701E-1,-3.928046823E-1
4.495397970E-1,3.844159544E-1,-2.625799477E-1,-2.255630940E-1
4.595290680E-1,2.991973162E-1,-1.624480337E-1,-2.636451647E-2
4.695183390E-1,1.511299312E-1,-1.544587873E-2,1.738992929E-1
4.793273490E-1,-3.848154470E-2,1.017297506E-1,3.347494900E-1
4.893166720E-1,-2.089188248E-1,2.503297664E-2,4.573844373E-1
4.993059430E-1,-3.335510790E-1,-2.327534109E-1,5.394073725E-1
5.091371930E-1,-4.187697470E-1,-4.862788618E-1,5.766905546E-1
5.191264640E-1,-4.730966091E-1,-6.492595077E-1,5.884081125E-1
5.291157350E-1,-5.093145370E-1,-6.876079440E-1,5.830819011E-1
5.389597450E-1,-5.412715077E-1,-5.800193548E-1,5.649729371E-1
5.489390160E-1,-5.764242411E-1,-3.605813682E-1,5.415378213E-1
5.589182870E-1,-6.222292185E-1,-7.935985923E-2,5.266245604E-1
5.687960990E-1,-6.509905457E-1,1.741656065E-1,5.394073725E-1
5.787754220E-1,-6.371424794E-1,3.083849549E-1,5.862776041E-1
5.887546410E-1,-5.987941027E-1,3.382114768E-1,6.288869381E-1
5.985745890E-1,-5.465977192E-1,3.094501793E-1,6.342130899E-1
6.085538600E-1,-4.816184938E-1,2.157096863E-1,6.033213735E-1
6.185331310E-1,-3.814865649E-1,8.255556226E-2,5.447335243E-1
6.284277140E-1,-2.738980353E-1,-7.083799690E-2,4.722976983E-1
6.384069850E-1,-1.897446364E-1,-1.944050342E-1,3.848154247E-1
6.483862560E-1,-1.183740199E-1,-2.764279842E-1,2.804225981E-1
6.582204220E-1,-6.191666797E-2,-2.551233172E-1,1.941387206E-1
6.681996930E-1,-7.789516449E-2,-3.994623944E-2,1.472684592E-1
6.781790160E-1,-1.908098608E-1,2.412752807E-1,1.430075318E-1
6.880210470E-1,-3.814865649E-1,5.075835586E-1,1.462032348E-1
6.980003180E-1,-8.256887197E-1,4.042559266E-1,2.583190054E-2
7.079795890E-1,-1.358305216E0,-1.592523307E-1,-8.708280325E-2
7.178313080E-1,-1.209172606E0,-3.232982159E-1,2.942706347E-1
7.278105780E-1,-7.756227851E-1,-2.945369184E-1,9.452611804E-1
7.377898490E-1,-7.724270821E-1,-8.793498874E-1,1.030479789E0
7.476810990E-1,-1.030213475E0,-1.225550652E0,5.745600462E-1
7.576603700E-1,-1.252847195E0,-8.516538143E-1,1.185071766E-1
7.676396410E-1,-1.306108832E0,-6.684337258E-1,2.396774245E-3
7.774811510E-1,-1.103714585E0,-7.493914366E-1,2.292914093E-1
7.874604220E-1,-6.243597269E-1,-6.013240218E-1,7.684324980E-1
7.974396930E-1,-2.057231218E-1,-2.497971505E-1,1.027284145E0
8.072790160E-1,-1.268958896E-1,7.935985923E-2,4.722976983E-1
8.172582870E-1,5.951989442E-2,5.597799420E-1,-3.246297538E-1
8.272375580E-1,4.174381793E-1,9.635032415E-1,-7.347444892E-1
8.370874010E-1,8.339443207E-1,9.709599018E-1,-9.424648881E-1
8.470666720E-1,1.278146505E0,6.652380228E-1,-1.091597557E0
8.570459430E-1,1.593455434E0,2.945369184E-1,-1.137402534E0
8.669014640E-1,1.739392400E0,1.784265339E-1,-1.166163802E0
8.768807350E-1,1.786262631E0,2.540580630E-1,-1.250317216E0
8.868600060E-1,1.808632493E0,3.456681073E-1,-1.283339500E0
8.967346930E-1,1.771349311E0,4.276910722E-1,-1.173620462E0
9.067139640E-1,1.658434629E0,4.298215210E-1,-1.013835549E0
9.166932350E-1,1.431540012E0,3.946688473E-1,-8.455287218E-1
9.265649530E-1,1.162036061E0,2.167749256E-1,-7.208964229E-1
9.365442760E-1,8.946625590E-1,4.420717061E-2,-6.111774445E-1
9.465234950E-1,7.433995008E-1,-4.740286991E-2,-4.908061028E-1
9.563584430E-1,7.210295796E-1,-8.681648970E-2,-3.459344208E-1
9.663377140E-1,7.593780160E-1,-1.954702586E-1,-2.468677461E-1
9.763170370E-1,7.529866099E-1,-4.639089704E-1,-2.287587970E-1
9.861758390E-1,6.358109713E-1,-7.824136615E-1,-2.958684862E-1
9.961551100E-1,3.450023532E-1,-8.559147120E-1,-3.672390878E-1
1.006134381E0,-7.043853402E-2,-6.066502333E-1,-2.916075289E-1
1.015993808E0,-4.571181238E-1,-1.603175700E-1,-9.240896255E-2
1.025973078E0,-7.404701114E-1,2.029268891E-1,5.885412544E-2
1.035952349E0,-9.481905699E-1,1.848179251E-1,1.653774232E-1
1.045817558E0,-1.054713845E0,-6.870753318E-2,3.549889028E-1
1.055788651E0,-1.042996287E0,-2.412752807E-1,6.043865681E-1
1.065759797E0,-8.501890898E-1,-3.999949992E-1,7.513887286E-1
1.075607610E0,-5.529890656E-1,-5.406057835E-1,7.407364249E-1
1.085578703E0,-3.367467821E-1,-5.608451962E-1,7.045184970E-1
1.095549797E0,-2.536586225E-1,-5.075835586E-1,6.469959021E-1
1.105423078E0,-2.589847744E-1,-4.308867455E-1,5.191679597E-1
1.115394172E0,-2.802894413E-1,-3.264939189E-1,3.390104175E-1
1.125365266E0,-2.738980353E-1,-1.858831644E-1,1.834863871E-1
1.135258912E0,-2.664414048E-1,-9.054481052E-3,1.067896113E-1
1.145230058E0,-2.685718834E-1,1.826874614E-1,5.778888986E-2
1.155201151E0,-2.611152530E-1,2.732322812E-1,6.657706574E-3
1.165042506E0,-2.259625494E-1,2.274272442E-1,-2.316881903E-2
1.175013599E0,-1.588528752E-1,8.362079412E-2,5.592473317E-3
1.184984693E0,-6.617759913E-2,-1.091863886E-1,9.507204592E-2
1.194890006E0,1.997311832E-3,-2.838846147E-1,1.685731262E-1
1.204861151E0,4.993279651E-2,-3.595161438E-1,1.898777932E-1
1.214832193E0,9.360735118E-2,-3.094501793E-1,1.941387206E-1
1.224683756E0,1.191729456E-1,-1.155777797E-1,1.834863871E-1
1.234654901E0,1.330209672E-1,1.624480337E-1,1.270290315E-1
1.244625995E0,-8.641702682E-2,1.965354979E-1,-2.742975019E-2
1.254499485E0,-6.030550599E-1,7.190322876E-2,-3.193036020E-1
1.264470631E0,-9.907998443E-1,-6.924014539E-3,-5.302197337E-1
1.274441724E0,-1.071757555E0,-5.672366023E-1,-7.536523789E-2
1.284312245E0,-8.011884093E-1,-1.467358470E0,8.216941357E-1
1.294283391E0,-5.955983996E-1,-1.654839516E0,9.676310420E-1
1.304254485E0,-8.171668649E-1,-8.868064880E-1,2.719007432E-1
1.314150006E0,-9.322120547E-1,-4.207670316E-2,-2.191716880E-1
1.324121151E0,-7.340787053E-1,3.041240275E-1,-1.765623689E-1
1.334092245E0,-5.860112906E-1,4.681699276E-1,1.653774232E-1
1.343932818E0,-5.284887552E-1,4.745613039E-1,4.563191831E-1
1.353903912E0,-3.921388984E-1,4.362129271E-1,1.813559234E-1
1.363875006E0,-2.995967865E-2,7.472609878E-1,-2.745638192E-1
1.373770943E0,4.589822888E-1,1.211702585E0,-5.046541691E-1
1.383742089E0,8.989235163E-1,1.073222280E0,-6.559172273E-1
1.393713183E0,1.239798069E0,6.588466167E-1,-7.741581202E-1
1.403579537E0,1.440061927E0,4.724308550E-1,-7.453967929E-1
1.413550683E0,1.443257570E0,3.914731443E-1,-6.292864084E-1
1.423521724E0,1.270689845E0,2.657756507E-1,-5.376763940E-1
1.433405058E0,1.062969446E0,1.965354979E-1,-4.236964285E-1
1.443376203E0,9.287500381E-1,2.018616647E-1,-2.447372824E-1
1.453347297E0,8.435314298E-1,1.954702586E-1,-8.495233208E-2
1.463197610E0,7.391385436E-1,1.720351279E-1,-7.190322969E-3
1.473168756E0,6.187672615E-1,1.454043090E-1,-3.994623665E-3
1.483139849E0,5.314181447E-1,1.209039465E-1,-2.956021577E-2
1.493024016E0,4.866783321E-1,6.444659829E-2,-6.364767253E-2
1.502995110E0,4.461994767E-1,-5.166380107E-2,-1.233007237E-1
1.512966256E0,3.663070202E-1,-1.507304758E-1,-2.053236663E-1
1.522845787E0,2.406095117E-1,-1.432738453E-1,-2.564548552E-1
1.532816933E0,6.378082931E-2,-4.846810177E-2,-2.234326303E-1
1.542787974E0,-1.258306503E-1,5.698996782E-2,-1.744319052E-1
1.552665526E0,-2.792242169E-1,1.432738453E-1,-1.403444558E-1
1.562630006E0,-4.059869349E-1,2.093182951E-1,-5.512581021E-2
1.572594537E0,-4.699009061E-1,1.986659616E-1,7.057169080E-2
1.582466360E0,-4.209001958E-1,7.296846062E-2,1.781602204E-1
1.592430839E0,-3.026593328E-1,-1.624480337E-1,2.559222281E-1
1.602395370E0,-2.067883611E-1,-4.181039631E-1,3.262276053E-1
1.612260683E0,-1.599181145E-1,-5.491276383E-1,3.709673882E-1
1.622225266E0,-1.343525201E-1,-5.299534202E-1,3.741630912E-1
1.632189745E0,-1.066564545E-1,-3.978645205E-1,3.400756419E-1
1.642069641E0,-4.913387448E-2,-2.242315561E-1,2.782921195E-1
1.652034172E0,5.845466256E-2,-1.123820841E-1,1.983996481E-1
1.661998703E0,1.681736708E-1,-8.149032295E-2,1.430075318E-1
1.671887766E0,2.256962508E-1,-7.083799690E-2,1.366161406E-1
1.681852297E0,1.798912287E-1,-8.042509109E-2,1.387466043E-1
1.691816828E0,-1.398118306E-2,-3.728315700E-3,1.025286764E-1
1.701710578E0,-4.262263775E-1,1.901440918E-1,7.270215452E-2
1.711675058E0,-8.555153012E-1,1.038602218E-1,8.548495173E-2
1.721639589E0,-8.480586410E-1,-3.829512596E-1,3.944025338E-1
1.731547037E0,-4.155740440E-1,-5.640408993E-1,8.547163606E-1
1.741511568E0,-9.067796171E-2,-2.721670270E-1,6.544525623E-1
1.751476047E0,-5.659050494E-2,-2.924064696E-1,8.974587917E-2
1.761335995E0,1.010639817E-1,-2.764279842E-1,-1.030612960E-1
1.771300526E0,2.683055699E-1,2.838846147E-1,-3.169068322E-2
1.781265058E0,4.291557670E-1,3.797555864E-1,-6.471290439E-2
1.791185891E0,4.195686579E-1,-2.609820850E-2,-1.637795717E-1
1.801150370E0,3.055887222E-1,-3.355484083E-2,-2.681724131E-1
1.811114901E0,3.663070202E-1,1.315562725E-1,-4.758928418E-1
1.820980578E0,5.399399996E-1,2.423405200E-1,-6.292864084E-1
1.830945058E0,6.784203053E-1,4.074516296E-1,-6.697652340E-1
1.840909589E0,7.125077248E-1,5.203663111E-1,-6.484606266E-1
1.850798756E0,6.762897968E-1,4.660394490E-1,-5.760247707E-1
1.860763287E0,6.198324561E-1,3.105154335E-1,-4.801537991E-1
1.870727766E0,5.473966002E-1,1.794917583E-1,-3.949351311E-1
1.880618339E0,4.675041437E-1,9.640359133E-2,-3.363473415E-1
1.890582818E0,4.078511000E-1,9.107742459E-2,-2.894770801E-1
1.900547349E0,3.833507299E-1,1.432738453E-1,-2.532591522E-1
1.910402870E0,3.492632806E-1,1.901440918E-1,-2.319544852E-1
1.920367401E0,2.491313666E-1,2.370143533E-1,-1.957365721E-1
1.930331933E0,7.762885839E-2,2.924064696E-1,-1.126483902E-1
1.940249120E0,-1.098521575E-1,2.785584331E-1,-1.358172111E-2
1.950213599E0,-2.866808474E-1,2.529928386E-1,9.294158220E-2
1.960178131E0,-4.517919421E-1,2.849498391E-1,2.218347788E-1
1.970050891E0,-5.497934222E-1,2.380795777E-1,3.379451632E-1
1.980015370E0,-4.975969791E-1,2.183727734E-2,4.158403277E-1
1.989979901E0,-3.569862247E-1,-1.699046642E-1,4.477973282E-1
1.999869120E0,-2.557890713E-1,-1.858831644E-1,4.573844373E-1
2.009833599E0,-1.790923029E-1,-5.912043154E-2,4.232969582E-1
2.019798131E0,-9.919982404E-2,1.752308309E-1,3.613803089E-1
2.029666308E0,-4.700340703E-2,3.925383687E-1,3.027924895E-1
2.039630839E0,-3.635107726E-2,4.617785215E-1,2.484655976E-1
2.049595318E0,-1.717688330E-2,3.403419554E-1,2.015953511E-1
2.059485839E0,7.123745978E-2,1.486000121E-1,1.600512564E-1
2.069445006E0,1.980001926E-1,4.207670316E-2,9.187635034E-2
2.079404120E0,2.768274248E-1,6.764229387E-2,2.689713426E-2
2.089305474E0,2.374138087E-1,7.722939551E-2,-2.210358530E-2
2.099264641E0,7.017222792E-2,7.616416365E-2,-6.684337556E-2
2.109223756E0,-1.758965999E-1,2.396774292E-2,-7.536523789E-2
2.119103235E0,-6.360772848E-1,-1.954702586E-1,-3.701684624E-2
2.129062401E0,-1.152715325E0,-6.609770656E-1,-7.536523789E-2
2.139021516E0,-1.046191931E0,-8.708279729E-1,-9.773512930E-2
2.148915058E0,-6.232944727E-1,-8.101097345E-1,3.123795986E-1
2.158874224E0,-5.465977192E-1,-1.109440207E0,4.403406978E-1
2.168833339E0,-6.456643939E-1,-1.133940578E0,-3.488638252E-2
2.178744953E0,-5.018579364E-1,-4.159734845E-1,-1.861494780E-1
2.188704120E0,-2.440715134E-1,3.307548463E-1,3.541899845E-2
2.198663235E0,-7.043853402E-2,1.475347728E-1,1.515294015E-1
2.208549172E0,-5.765573680E-2,-2.636451721E-1,-2.636451647E-2
2.218508339E0,-1.930734888E-2,5.326165119E-4,-2.681724131E-1
2.228467453E0,3.503285050E-1,2.924064696E-1,-4.247616827E-1
2.238372558E0,7.668346167E-1,3.073197305E-1,-5.536548495E-1
2.248331724E0,9.042496681E-1,2.817541361E-1,-6.292864084E-1
2.258290839E0,8.616403341E-1,3.488638103E-1,-6.559172273E-1
2.268189589E0,7.817478776E-1,4.319519997E-1,-5.621767044E-1
2.278148756E0,6.816160083E-1,4.042559266E-1,-3.885437548E-1
2.288107870E0,5.580489635E-1,3.009283245E-1,-2.543243766E-1
2.297992401E0,4.323514402E-1,2.114487588E-1,-1.797580719E-1
2.307951568E0,3.109148741E-1,1.603175700E-1,-1.414096802E-1
2.317910683E0,1.756303012E-1,1.027949899E-1,-1.243659556E-1
2.327824068E0,4.567186534E-2,4.207670316E-2,-1.137136221E-1
2.337783235E0,-3.848154470E-2,1.225017942E-2,-9.666989744E-2
2.347742349E0,-9.067796171E-2,-4.793548491E-3,-8.282186836E-2
2.357641881E0,-1.641790420E-1,-7.989247330E-3,-9.134373069E-2
2.367601047E0,-2.760285139E-1,-1.970681176E-2,-5.406057462E-2
2.377560162E0,-4.081174135E-1,1.970681176E-2,9.507204592E-2
2.387430735E0,-4.944012761E-1,1.219691783E-1,2.282261699E-1
2.397389901E0,-5.295539498E-1,1.816222370E-1,3.070534170E-1
2.407349016E0,-5.423367620E-1,1.240996495E-1,4.105141759E-1
2.417268287E0,-4.848141670E-1,-4.420717061E-2,4.967980385E-1
2.427227453E0,-3.655080795E-1,-1.762960702E-1,5.234288573E-1
2.437186568E0,-2.472672164E-1,-1.901440918E-1,5.117112994E-1
2.447081620E0,-1.609833390E-1,-1.422086060E-1,5.010589957E-1
2.457040787E0,-1.077216864E-1,-9.001219273E-2,4.712324440E-1
2.466999901E0,-7.256899774E-2,-5.059856921E-2,4.167724252E-1
2.476908026E0,-6.085143611E-2,5.326165119E-4,3.464670479E-1
2.486867193E0,-7.682993263E-2,6.444659829E-2,2.708354890E-1
2.496826308E0,-9.706936032E-2,1.422086060E-1,2.026605755E-1
2.506684693E0,-1.098521575E-1,1.826874614E-1,1.579207927E-1
2.516643860E0,-9.600412846E-2,1.560566425E-1,1.312899739E-1
2.526602974E0,-4.061200842E-2,1.123820841E-1,1.142462417E-1
2.536507714E0,1.478010789E-2,1.123820841E-1,1.206376404E-1
2.546466881E0,-2.569874749E-2,2.561885417E-1,1.568555683E-1
2.556425995E0,-2.408758104E-1,5.203663111E-1,2.101172209E-1
2.566332506E0,-6.296858788E-1,6.471290588E-1,1.941387206E-1
2.576287506E0,-9.844084978E-1,2.892107666E-1,9.853405878E-3
2.586242401E0,-8.927984238E-1,-3.994623944E-2,-7.749570161E-2
2.596158443E0,-6.147726178E-1,1.432738453E-1,3.230319023E-1
2.606113391E0,-5.391410589E-1,-1.805569977E-1,5.447335243E-1
2.616068339E0,-3.442034125E-1,-9.539161921E-1,1.579207927E-1
2.625952506E0,-4.487293959E-2,-8.111749291E-1,-1.158440933E-1
2.635907506E0,1.042596847E-1,1.762960702E-1,-1.520620137E-1
2.645862453E0,1.276948154E-1,8.133054376E-1,-2.692376375E-1
2.655765474E0,2.278267145E-1,4.181039631E-1,-2.830856740E-1
2.665720474E0,2.725664973E-1,-1.240996495E-1,-7.216953486E-2
2.675675422E0,2.693707943E-1,-1.549914032E-1,-1.062569916E-1
2.685569849E0,4.398080707E-1,-5.059856921E-2,-2.862813771E-1
2.695524745E0,7.306166887E-1,3.781577200E-2,-3.693695366E-1
2.705479693E0,8.829450011E-1,1.581871063E-1,-4.801537991E-1
2.715418443E0,8.456618786E-1,2.572537661E-1,-5.632419586E-1
2.725373391E0,7.455299497E-1,3.030588031E-1,-5.504591465E-1
2.735328339E0,6.326152682E-1,2.721670270E-1,-5.206326246E-1
2.745237297E0,5.058525205E-1,1.912093312E-1,-5.099803209E-1
2.755192245E0,4.025249183E-1,1.166430190E-1,-4.822842479E-1
2.765147193E0,3.428718746E-1,7.722939551E-2,-4.151745737E-1
2.775017818E0,3.343500197E-1,3.781577200E-2,-3.224993050E-1
2.784972818E0,3.503285050E-1,-9.054481052E-3,-2.340849638E-1
2.794927766E0,3.567199111E-1,-5.272903293E-2,-1.754971445E-1
2.804854641E0,3.577851355E-1,-6.125089899E-2,-1.414096802E-1
2.814809589E0,3.471328020E-1,-2.716344222E-2,-1.201050207E-1
2.824764537E0,3.162410557E-1,3.568530455E-2,-1.243659556E-1
2.834638026E0,2.672403455E-1,1.283605844E-1,-1.051917598E-1
2.844592974E0,1.788259894E-1,2.327534109E-1,-2.636451647E-2
2.854547870E0,8.934641629E-2,3.275591433E-1,3.967992961E-2
2.864460526E0,9.320789250E-4,4.106473327E-1,7.483261824E-2
2.874415474E0,-1.183740199E-1,4.202344418E-1,9.507204592E-2
2.884370370E0,-2.035926580E-1,3.307548463E-1,1.035939083E-1
2.894297245E0,-1.865489334E-1,2.114487588E-1,1.280942708E-1
2.904252193E0,-1.482005417E-1,1.027949899E-1,1.749645174E-1
2.914207141E0,-1.588528752E-1,9.054481052E-3,2.250304818E-1
2.924119068E0,-2.057231218E-1,-5.379426852E-2,2.740311921E-1
2.934074016E0,-2.525933683E-1,-5.272903293E-2,3.166405261E-1
2.944028964E0,-2.611152530E-1,-5.272903293E-2,3.485974967E-1
2.953926099E0,-2.195711583E-1,-1.411433816E-1,3.624455333E-1
2.963881047E0,-1.535267085E-1,-2.774932086E-1,3.411408663E-1
2.973835995E0,-8.215609938E-2,-3.925383687E-1,2.846835256E-1
2.983744068E0,-8.655018173E-3,-3.563204408E-1,2.037258148E-1
2.993699016E0,2.117150649E-2,-5.485950038E-2,1.131810099E-1
3.003653964E0,1.051917579E-2,3.541899920E-1,5.139749497E-2
3.013552401E0,-7.682993263E-2,6.609770656E-1,2.796236612E-2
3.023507349E0,-2.504629195E-1,9.081111550E-1,-5.059856921E-3
3.033462349E0,-4.400743842E-1,8.122401834E-1,-6.577813625E-2
3.043362297E0,-7.074478865E-1,2.529928386E-1,-2.010627389E-1
3.053317245E0,-6.179683208E-1,1.177082509E-1,6.950645149E-2
3.063272193E0,-2.770937383E-1,-1.475347728E-1,7.854762077E-1
3.073163287E0,1.691057347E-2,-9.933298230E-1,7.620410919E-1
3.083114797E0,1.809564531E-1,-8.250229955E-1,3.869459033E-1
3.093066308E0,2.715012729E-1,1.443390697E-1,3.209014535E-1
3.102975891E0,5.037220716E-1,3.776251078E-1,1.685731262E-1
3.112927453E0,5.292876363E-1,-1.443390697E-1,6.737598777E-2
3.122878964E0,3.599156141E-1,-3.925383687E-1,1.259638071E-1
3.132810006E0,2.991973162E-1,-4.521914124E-1,3.967992961E-2
3.142761516E0,3.077192008E-1,-4.979964495E-1,-1.797580719E-1
3.152713026E0,3.087844253E-1,-2.849498391E-1,-3.832175732E-1
3.162596412E0,2.704360485E-1,6.018566713E-2,-5.440677404E-1
3.172547974E0,1.862826198E-1,2.306229472E-1,-6.122426987E-1
3.182499485E0,7.762885839E-2,2.402100414E-1,-5.994598866E-1
3.192436776E0,-6.524552125E-3,1.826874614E-1,-5.376763940E-1
3.202388287E0,-3.848154470E-2,9.214265645E-2,-4.428706169E-1
3.212339797E0,-3.422060981E-2,-2.663082443E-3,-3.469996452E-1
3.222266516E0,7.656362653E-2,-3.115806580E-1,-2.937380075E-1
3.232218078E0,2.139786780E-1,-4.607132971E-1,-2.383458912E-1
3.242169589E0,1.904104091E-2,1.059906855E-1,-1.424749196E-1
3.252073131E0,9.360735118E-2,-1.251648813E-1,-1.499315500E-1
3.262024641E0,3.268933892E-1,-3.073197305E-1,-1.403444558E-1
3.271976151E0,2.853493094E-1,5.485950038E-2,-8.495233208E-2
3.281856151E0,2.991973162E-1,1.198387146E-1,-9.134373069E-2
3.291807714E0,4.195686579E-1,7.190322876E-2,-1.158440933E-1
3.301759224E0,5.037220716E-1,1.507304758E-1,-1.275616586E-1
3.311678183E0,5.079829693E-1,2.604494691E-1,-1.691057384E-1
3.321629693E0,4.366123974E-1,3.371462524E-1,-2.426068187E-1
3.331581203E0,3.183715343E-1,3.818860352E-1,-3.033251166E-1
3.341508756E0,2.001306564E-1,3.957340717E-1,-3.022598624E-1
3.351460266E0,9.041165560E-2,3.744294047E-1,-2.671071887E-1
3.361411776E0,-7.682993263E-2,3.392767310E-1,-2.426068187E-1
3.371322506E0,-2.909417748E-1,2.892107666E-1,-2.074541301E-1
3.381274016E0,-4.699009061E-1,2.295577228E-1,-1.446053833E-1
3.391225526E0,-5.796199441E-1,1.070559174E-1,-4.873441160E-2
3.401109641E0,-6.286206245E-1,-1.624480337E-1,5.139749497E-2
3.411061203E0,-6.200987697E-1,-4.276910722E-1,1.195724085E-1
3.421012714E0,-6.169030666E-1,-5.267577171E-1,7.909355313E-2
3.430959328E0,-7.596443295E-1,-6.173025370E-1,4.527240526E-3
3.440910839E0,-9.748213887E-1,-7.994573712E-1,1.121157780E-1
3.450862349E0,-1.146323919E0,-6.045197248E-1,5.117112994E-1
3.460775422E0,-1.198520303E0,5.592473224E-2,1.178547144E0
3.470726985E0,-1.072822809E0,1.784265339E-1,1.801708460E0
3.480678495E0,-8.469933867E-1,-5.416709781E-1,2.147909164E0
3.490583860E0,-5.434020162E-1,-8.111749291E-1,1.976406693E0
3.500535370E0,-3.644428551E-1,-1.794917583E-1,1.203047514E0
3.510486933E0,-2.579195499E-1,4.703003764E-1,2.761616707E-1
3.520369797E0,3.501953557E-2,7.014559507E-1,-3.224993050E-1
3.530321360E0,3.620460629E-1,7.344781756E-1,-6.452649236E-1
3.540272870E0,6.869421601E-1,4.894745648E-1,-1.109706521E0
3.550222297E0,8.541837335E-1,-1.230344176E-1,-1.525147438E0
3.560173808E0,7.977263927E-1,-3.232982159E-1,-1.607170343E0
3.570125370E0,7.625737190E-1,-1.225017942E-2,-1.335535884E0
3.580009745E0,8.573794365E-1,1.507304758E-1,-8.785509467E-1
3.589958599E0,8.520532846E-1,-5.858781748E-3,-4.961322844E-1
3.599907453E0,7.178338766E-1,-1.976007223E-1,-2.511286736E-1
3.609808912E0,6.177020073E-1,-2.742975056E-1,-3.382114694E-2
3.619757818E0,5.367442966E-1,-2.796236575E-1,1.206376404E-1
3.629706620E0,4.280905128E-1,-2.679060996E-1,1.877473146E-1
3.639639120E0,3.055887222E-1,-2.231663167E-1,1.952039450E-1
3.649587974E0,2.118482143E-1,-1.645784974E-1,1.483336985E-1
3.659536881E0,1.660431921E-1,-1.390129030E-1,6.737598777E-2
3.669440474E0,1.372819096E-1,-1.102516204E-1,-2.849498391E-2
3.679389328E0,7.336792350E-2,-2.396774292E-2,-1.051917598E-1
3.689338183E0,-2.250304818E-2,1.134473160E-1,-9.240896255E-2
3.699284328E0,-1.268958896E-1,2.647103965E-1,-2.742975019E-2
3.709233235E0,-2.174406946E-1,3.563204408E-1,-2.929390874E-3
3.719182089E0,-2.643109560E-1,2.434057444E-1,2.476666868E-2
3.729075787E0,-2.387453467E-1,-3.035914153E-2,6.950645149E-2
3.739024693E0,-1.556571722E-1,-2.711018026E-1,9.294158220E-2
3.748973495E0,-8.854749799E-2,-3.509942889E-1,1.089200750E-1
3.758884693E0,-5.019910634E-2,-3.041240275E-1,1.302247345E-1
3.768833547E0,-4.274247587E-2,-1.912093312E-1,1.589860320E-1
3.778782453E0,-8.428656310E-2,-6.657706201E-2,1.962691844E-1
3.788696412E0,-1.822880059E-1,3.994623944E-2,2.495308369E-1
3.798645266E0,-3.090507388E-1,9.427312016E-2,3.113143444E-1
3.808594120E0,-4.443353117E-1,1.017297506E-1,3.709673882E-1
3.818528703E0,-5.838808417E-1,5.059856921E-2,4.232969582E-1
3.828477610E0,-7.149044871E-1,-9.320788831E-2,4.520582557E-1
3.838426464E0,-8.331453800E-1,-2.029268891E-1,4.595148861E-1
3.848343026E0,-9.407339096E-1,-1.251648813E-1,4.765586257E-1
3.858291933E0,-1.072822809E0,6.018566713E-2,5.117112994E-1
3.868240787E0,-1.201715946E0,2.700365782E-1,5.287550688E-1
3.878171099E0,-1.338065863E0,4.085168540E-1,3.805544972E-1
3.888119953E0,-1.573482275E0,1.603175700E-1,5.246272683E-2
3.898068808E0,-1.635265827E0,-3.573856652E-1,1.845516264E-1
3.907955526E0,-1.301847935E0,-5.619103909E-1,1.180677652E0
3.917904381E0,-9.013202786E-1,-8.101097345E-1,2.031798840E0
3.927853235E0,-7.532529235E-1,-1.126483917E0,1.869883418E0
3.937782558E0,-7.873403430E-1,-8.985240459E-1,1.105046153E0
3.947731412E0,-7.745575905E-1,-7.296846062E-2,5.649729371E-1
3.957680266E0,-5.391410589E-1,5.139749050E-1,2.548570037E-1
3.967579693E0,-1.748313755E-1,4.575175941E-1,8.122401685E-2
3.977528599E0,5.951989442E-2,3.808208108E-1,-1.137136221E-1
3.987477401E0,2.139786780E-1,3.264939189E-1,-4.897408783E-1
3.997392662E0,4.547213614E-1,3.637770712E-1,-8.242240548E-1
4.007341516E0,7.604432106E-1,4.916050434E-1,-9.712262154E-1
4.017290422E0,1.002251148E0,4.905398190E-1,-9.382039905E-1
4.027238339E0,1.123687744E0,4.287562966E-1,-7.816147208E-1
4.037187193E0,1.166296959E0,3.499290347E-1,-5.611115098E-1
4.047136047E0,1.179079771E0,2.284924835E-1,-3.363473415E-1
4.057055891E0,1.164166570E0,9.959928691E-2,-1.531272531E-1
4.067004745E0,1.124752879E0,4.793548491E-3,-3.595161438E-2
4.076953599E0,1.065099835E0,-2.183727734E-2,1.304910425E-2
4.086870787E0,9.809464812E-1,-2.663082443E-3,-6.125089712E-3
4.096817558E0,8.541837335E-1,-7.989247330E-3,-7.110430300E-2
4.106764328E0,7.220948339E-1,-8.255556226E-2,-1.488663107E-1
4.116651672E0,6.272891164E-1,-1.869483888E-1,-2.191716880E-1
4.126598443E0,5.367442966E-1,-2.476666719E-1,-2.841508985E-1
4.136545214E0,4.099815488E-1,-2.359491140E-1,-3.533910513E-1
4.146467610E0,2.352833450E-1,-1.134473160E-1,-3.896089792E-1
4.156414381E0,1.904104091E-2,7.083799690E-2,-3.704347908E-1
4.166361151E0,-2.280930281E-1,1.922745556E-1,-3.075860441E-1
4.176312453E0,-4.294220507E-1,1.805569977E-1,-2.202369273E-1
4.186259224E0,-5.284887552E-1,4.740286991E-2,-9.773512930E-2
4.196205995E0,-5.316844583E-1,-1.549914032E-1,6.098458916E-2
4.206125578E0,-4.358134568E-1,-3.339505494E-1,2.047910541E-1
4.216072349E0,-2.717675865E-1,-4.617785215E-1,2.974663079E-1
4.226019120E0,-1.279611140E-1,-5.129097104E-1,3.517931998E-1
4.235938756E0,-2.569874749E-2,-4.713656008E-1,3.667064607E-1
4.245885526E0,6.165036187E-2,-3.126458824E-1,3.400756419E-1
4.255832297E0,1.436733007E-1,-5.592473224E-2,2.964010835E-1
4.265756933E0,2.001306564E-1,2.082530558E-1,2.207695395E-1
4.275703703E0,2.043915838E-1,3.712337017E-1,1.206376404E-1
4.285650474E0,1.553908736E-1,3.243634701E-1,6.098458916E-2
4.295550526E0,8.508548886E-2,1.731003672E-1,5.778888986E-2
4.305497297E0,8.615072072E-2,1.411433816E-1,-2.929390874E-3
4.315444068E0,-1.078548469E-2,-7.935985923E-2,-1.893451661E-1
4.325349276E0,-5.103797913E-1,-4.138430357E-1,-3.438039720E-1
4.335296047E0,-6.872084737E-1,-2.263620198E-1,-7.856093347E-2
4.345242818E0,-3.953346014E-1,5.805519968E-2,7.268883586E-1
4.355175787E0,-3.676385581E-1,-3.360810280E-1,1.127416015E0
4.365122558E0,-7.798837423E-1,-7.035863996E-1,7.950633168E-1
4.375069328E0,-1.181476593E0,-1.997311860E-1,6.523220539E-1
4.384991568E0,-9.322120547E-1,1.624480337E-1,7.109099030E-1
4.394938339E0,-3.718994856E-1,6.551183015E-2,6.161041260E-1
4.404885110E0,-2.250304818E-2,1.528609395E-1,3.198362291E-1
4.414816151E0,2.715012729E-1,2.838846147E-1,-2.149107605E-1
4.424762922E0,5.591141582E-1,-2.609820850E-2,-8.583115339E-1
4.434709693E0,7.689650655E-1,-4.543218911E-1,-1.315296531E0
4.444644641E0,8.467270732E-1,-5.278229713E-1,-1.430341601E0
4.454591412E0,8.275529146E-1,-3.424724042E-1,-1.291861296E0
4.464538183E0,8.083786964E-1,-1.400781423E-1,-1.022357345E0
4.474421256E0,8.232919574E-1,-3.888100386E-2,-6.665695906E-1
4.484368026E0,8.232919574E-1,-4.207670316E-2,-2.713681161E-1
4.494314797E0,7.892045379E-1,-7.616416365E-2,-1.864157850E-3
4.504267610E0,7.007901669E-1,-6.551183015E-2,9.933298081E-2
4.514214381E0,5.655055642E-1,-1.011971384E-2,1.366161406E-1
4.524161151E0,4.185034335E-1,4.740286991E-2,1.302247345E-1
4.534054016E0,2.917406857E-1,7.403369248E-2,7.483261824E-2
4.544000787E0,1.948044896E-1,6.444659829E-2,-1.571218669E-2
4.553947558E0,8.402025700E-2,4.846810177E-2,-1.318225861E-1
4.563902766E0,-5.446003750E-2,7.935985923E-2,-2.213021666E-1
4.573849537E0,-2.238320857E-1,1.038602218E-1,-2.521939278E-1
4.583796308E0,-3.995955288E-1,8.362079412E-2,-2.585853040E-1
4.593703078E0,-5.359453559E-1,4.207670316E-2,-2.511286736E-1
4.603648078E0,-5.913375020E-1,-2.822867595E-2,-1.904104054E-1
4.613593078E0,-5.551195741E-1,-1.486000121E-1,-9.453943372E-2
4.623505110E0,-4.816184938E-1,-3.147763610E-1,1.944050193E-2
4.633450110E0,-4.230306745E-1,-4.330172241E-1,1.589860320E-1
4.643395110E0,-3.580514491E-1,-4.170387387E-1,2.964010835E-1
4.653344901E0,-2.579195499E-1,-2.796236575E-1,4.093157947E-1
4.663289901E0,-1.535267085E-1,-1.752308309E-1,4.712324440E-1
4.673234901E0,-9.174319357E-2,-1.933397949E-1,4.680367708E-1
4.683153860E0,-6.085143611E-2,-1.965354979E-1,4.382102489E-1
4.693098860E0,-7.682993263E-2,-8.681648970E-2,4.147751033E-1
4.703043860E0,-1.535267085E-1,8.681648970E-2,4.071853161E-1
4.712942245E0,-2.813546658E-1,3.115806580E-1,3.762935698E-1
4.722887245E0,-5.465977192E-1,6.055849791E-1,3.454017937E-1
4.732832245E0,-1.014235020E0,7.664351463E-1,3.549889028E-1
4.742754276E0,-1.394523144E0,5.363448262E-1,4.029243886E-1
4.752699276E0,-1.446719646E0,3.989297748E-1,7.439321280E-1
4.762644276E0,-1.363631368E0,5.853455663E-1,1.206243277E0
4.772594224E0,-1.300782681E0,4.660394490E-1,1.058175802E0
4.782539224E0,-1.116497397E0,-1.454043090E-1,5.905385613E-1
4.792484224E0,-6.829475164E-1,-6.535204649E-1,4.082505703E-1
4.802385006E0,-5.231625438E-1,-2.881455421E-1,6.406044960E-1
4.812330006E0,-6.019898057E-1,1.624480337E-1,8.195636868E-1
4.822275006E0,-4.219654202E-1,-1.762960702E-1,3.944025338E-1
4.832208495E0,-2.099840641E-1,-2.316881865E-1,-1.360835135E-1
4.842153495E0,3.395430371E-2,6.231613085E-2,-5.216978788E-1
4.852098495E0,4.547213614E-1,1.304910481E-1,-8.561810255E-1
4.862033131E0,8.552489877E-1,1.240996495E-1,-9.978570342E-1
4.871978131E0,1.101317763E0,3.051892519E-1,-9.105079174E-1
4.881923131E0,1.246189475E0,4.415390790E-1,-7.635057569E-1
4.891820839E0,1.304777265E0,3.648423254E-1,-6.186341047E-1
4.901765839E0,1.278146505E0,2.625799477E-1,-4.343487620E-1
4.911710839E0,1.246189475E0,2.071878165E-1,-2.681724131E-1
4.921636724E0,1.217428207E0,1.816222370E-1,-1.733666807E-1
4.931581724E0,1.148187995E0,1.848179251E-1,-1.243659556E-1
4.941526724E0,1.035273314E0,2.327534109E-1,-1.009308323E-1
4.951484797E0,8.797492981E-1,2.657756507E-1,-1.233007237E-1
4.961429797E0,6.858769059E-1,2.338186502E-1,-2.021279633E-1
4.971374797E0,4.813521802E-1,1.475347728E-1,-3.043903410E-1
4.981282870E0,2.704360485E-1,3.355484083E-2,-3.949351311E-1
4.991227870E0,3.715000302E-2,-8.468602598E-2,-4.535229504E-1
5.001172870E0,-2.185059190E-1,-1.422086060E-1,-4.375444651E-1
5.011080110E0,-4.677704573E-1,-1.091863886E-1,-3.256950080E-1
5.021025110E0,-6.659038067E-1,-1.187734827E-1,-1.701709777E-1
5.030970110E0,-7.852098942E-1,-1.699046642E-1,1.517957076E-2
5.040929901E0,-7.894708514E-1,-2.679060996E-1,2.303566486E-1
5.050874901E0,-6.722952127E-1,-4.181039631E-1,3.986634612E-1
5.060819901E0,-5.125102401E-1,-5.065183043E-1,4.925371110E-1
5.070711776E0,-3.697690070E-1,-5.107792616E-1,5.457987785E-1
5.080656776E0,-2.589847744E-1,-5.022573471E-1,5.585815907E-1
5.090601776E0,-1.908098608E-1,-4.820179343E-1,5.149070024E-1
5.100549328E0,-1.609833390E-1,-3.691032529E-1,4.488625526E-1
5.110492974E0,-9.493889660E-2,-1.677742004E-1,3.741630912E-1
5.120436620E0,1.584534161E-2,7.403369248E-2,2.995967865E-1
5.130343912E0,1.383471340E-1,2.902759910E-1,2.037258148E-1
5.140287558E0,2.129134536E-1,4.351477027E-1,7.802832127E-2
5.150231203E0,2.256962508E-1,5.501928329E-1,-2.742975019E-2
5.160157401E0,1.681736708E-1,7.355434299E-1,-5.832150951E-2
5.170101047E0,-3.422060981E-2,8.495233655E-1,4.607132822E-2
5.180044693E0,-4.858794212E-1,4.063864052E-1,2.442046702E-1
5.189997610E0,-8.491238952E-1,-9.746882319E-2,3.730978668E-1
5.199941256E0,-7.191654444E-1,1.262301207E-1,7.364754677E-1
5.209884901E0,-5.657718778E-1,3.243634701E-1,1.182808161E0
5.219799797E0,-5.945332050E-1,3.888100386E-2,1.003849030E0
5.229743443E0,-5.423367620E-1,-1.549914032E-1,6.576482654E-1
5.239687089E0,-3.910736740E-1,-6.764229387E-2,5.958647132E-1
5.249626724E0,-6.724283099E-2,-1.656437367E-1,5.319507122E-1
5.259570370E0,1.990654171E-1,-3.850817382E-1,3.145100474E-1
5.269514016E0,2.384790480E-1,-4.330172241E-1,-1.009308323E-1
5.279440943E0,3.673722446E-1,-4.479304850E-1,-5.941337347E-1
5.289384589E0,6.230281591E-1,-5.683017969E-1,-9.552477002E-1
5.299328183E0,7.966611385E-1,-5.725627542E-1,-1.100119352E0
5.309231620E0,8.850755095E-1,-3.648423254E-1,-1.048988223E0
5.319175266E0,9.149020314E-1,-7.083799690E-2,-9.264864326E-1
5.329118912E0,8.616403341E-1,1.070559174E-1,-8.295502067E-1
5.339048964E0,7.892045379E-1,1.581871063E-1,-6.537867785E-1
5.348992610E0,7.476604581E-1,1.986659616E-1,-4.705666900E-1
5.358936256E0,6.975944638E-1,2.274272442E-1,-4.215659797E-1
5.368847974E0,6.272891164E-1,2.199706137E-1,-4.215659797E-1
5.378791620E0,5.463314056E-1,1.901440918E-1,-3.832175732E-1
5.388735266E0,4.547213614E-1,1.166430190E-1,-3.331516385E-1
5.398667089E0,3.535242081E-1,-2.822867595E-2,-3.171731234E-1
5.408610735E0,2.576532364E-1,-2.284924835E-1,-3.331516385E-1
5.418554381E0,1.745650619E-1,-4.159734845E-1,-3.533910513E-1
5.428483495E0,1.127815470E-1,-5.651060939E-1,-3.661738634E-1
5.438427141E0,7.656362653E-2,-6.694989800E-1,-3.374125659E-1
5.448370787E0,3.928046674E-2,-7.291520238E-1,-2.415415943E-1
5.458335006E0,-2.676397935E-2,-7.078473568E-1,-1.137136221E-1
5.468278651E0,-8.748225868E-2,-6.162372828E-1,8.788172156E-3
5.478222297E0,-1.386134475E-1,-4.862788618E-1,1.472684592E-1
5.488141776E0,-2.121145278E-1,-3.126458824E-1,2.793573737E-1
5.498085422E0,-2.632457018E-1,-1.262301207E-1,3.635107577E-1
5.508029016E0,-2.387453467E-1,-5.326165119E-4,4.039896131E-1
5.517958287E0,-1.833532304E-1,5.059856921E-2,4.328840673E-1
5.527901933E0,-1.780270636E-1,3.035914153E-2,4.627105892E-1
5.537845526E0,-2.174406946E-1,-2.503297664E-2,4.744281471E-1
5.547737401E0,-2.632457018E-1,-2.290250920E-2,4.467321038E-1
5.557681047E0,-3.250292242E-1,3.462007269E-2,3.773587942E-1
5.567624693E0,-3.963998258E-1,5.272903293E-2,2.772268951E-1
5.577575318E0,-4.240958989E-1,-3.568530455E-2,1.515294015E-1
5.587518964E0,-4.102478623E-1,-1.581871063E-1,3.009283356E-2
5.597462610E0,-4.059869349E-1,-1.326215118E-1,-4.127778113E-2
5.607402974E0,-4.294220507E-1,-7.989247330E-3,-5.193011090E-2
5.617345578E0,-3.889431953E-1,1.970681176E-2,2.396774245E-3
5.627288131E0,-2.866808474E-1,-3.462007269E-2,6.098458916E-2
5.637221933E0,-4.059869349E-1,-3.520595133E-1,7.909355313E-2
5.647164485E0,-8.981245756E-1,-9.272853732E-1,3.541899845E-2
5.657107089E0,-1.006778359E0,-1.022091031E0,9.933298081E-2
5.666998183E0,-7.021217346E-1,-7.376738787E-1,7.077142000E-1
5.676940735E0,-6.573819518E-1,-6.343462467E-1,1.054980159E0
5.686883339E0,-7.809489369E-1,-6.545857191E-1,4.818847775E-1
5.696830214E0,-9.077116847E-1,-2.412752807E-1,-6.897383928E-2
5.706772766E0,-7.521876693E-1,2.764279842E-1,-3.054555655E-1
5.716715318E0,-2.504629195E-1,2.412752807E-1,-3.161078990E-1
5.726656464E0,8.934641629E-2,-1.070559174E-1,-3.672390878E-1
5.736599068E0,2.331528813E-1,-3.339505494E-1,-6.644390821E-1
5.746541568E0,4.483299553E-1,-3.083849549E-1,-9.520519972E-1
5.756447922E0,6.794854999E-1,-1.805569977E-1,-1.004248381E0
5.766390422E0,8.339443207E-1,-1.699046642E-1,-8.785509467E-1
5.776333026E0,9.255543351E-1,-4.740286991E-2,-6.740261912E-1
5.786286933E0,9.287500381E-1,1.688394397E-1,-4.769580960E-1
5.796229537E0,8.797492981E-1,3.296896219E-1,-3.331516385E-1
5.806172089E0,8.200962543E-1,4.564523399E-1,-2.117150575E-1
5.816080370E0,7.572475076E-1,4.628437459E-1,-1.339530498E-1
5.826022870E0,6.773550510E-1,4.095821083E-1,-1.190397888E-1
5.835965474E0,5.889406800E-1,3.222329915E-1,-1.073222235E-1
5.845905318E0,5.367442966E-1,2.050573528E-1,-7.856093347E-2
5.855847922E0,5.228962898E-1,8.255556226E-2,-8.921326697E-2
5.865790422E0,5.165048838E-1,-2.290250920E-2,-1.414096802E-1
5.875697922E0,5.122439265E-1,-1.219691783E-1,-1.744319052E-1
5.885640474E0,5.122439265E-1,-1.848179251E-1,-1.584534049E-1
5.895583078E0,4.877435565E-1,-1.667089611E-1,-1.094526947E-1
5.905511568E0,4.174381793E-1,-4.793548491E-3,-4.873441160E-2
5.915454120E0,3.535242081E-1,1.848179251E-1,-4.660394415E-2
5.925396724E0,3.407414258E-1,2.146444470E-1,-1.030612960E-1
5.935346881E0,3.652417660E-1,2.039921284E-1,-1.563229412E-1
5.945289381E0,4.131772518E-1,2.359491140E-1,-2.170412242E-1
5.955231985E0,4.547213614E-1,2.679060996E-1,-2.703028917E-1
5.965171203E0,4.568518102E-1,2.785584331E-1,-2.862813771E-1
5.975113808E0,4.195686579E-1,2.732322812E-1,-2.692376375E-1
5.985056360E0,3.460675776E-1,2.434057444E-1,-2.191716880E-1
5.994954120E0,2.331528813E-1,1.720351279E-1,-1.414096802E-1
6.004896672E0,6.591129303E-2,4.953333735E-2,-4.660394415E-2
6.014839276E0,-1.332872808E-1,-6.977276504E-2,5.246272683E-2
6.024792245E0,-3.250292242E-1,-1.454043090E-1,1.419423074E-1
6.034734745E0,-4.496614933E-1,-2.093182951E-1,2.207695395E-1
6.044677349E0,-4.773575366E-1,-3.169068098E-1,2.921401560E-1
6.054590839E0,-4.123783410E-1,-4.852136374E-1,3.347494900E-1
6.064533339E0,-2.952027023E-1,-5.832150578E-1,3.475322723E-1
6.074475943E0,-2.046578974E-1,-4.948007464E-1,3.549889028E-1
6.084395474E0,-2.280930281E-1,-3.073197305E-1,3.560541272E-1
6.094338078E0,-4.294220507E-1,-7.403369248E-2,3.432713449E-1
6.104280631E0,-7.575138211E-1,1.187734827E-1,3.081186414E-1
6.114249172E0,-9.705604315E-1,-3.568530455E-2,2.814878225E-1
6.124190891E0,-7.489919662E-1,-4.489957094E-1,7.471278310E-1
6.134132558E0,-4.262263775E-1,-6.790860295E-1,1.606770873E0
6.144021099E0,-3.900084496E-1,-5.129097104E-1,1.631271243E0
6.153962766E0,-5.892069936E-1,-9.214265645E-2,8.440639973E-1
6.163904433E0,-7.021217346E-1,2.838846147E-1,2.388785034E-1
6.173869485E0,-3.910736740E-1,4.085168540E-1,-6.790860742E-2
6.183811151E0,-7.589785382E-3,3.829512596E-1,-2.223673910E-1
6.193752870E0,1.575213373E-1,2.039921284E-1,-2.809551954E-1
6.203673912E0,2.011958808E-1,7.190322876E-2,-3.885437548E-1
6.213615631E0,2.523270845E-1,2.663082443E-3,-5.067846179E-1
6.223557297E0,3.556546867E-1,1.118494663E-2,-5.845466256E-1
6.233495006E0,4.430037737E-1,2.412752807E-1,-5.717638135E-1
6.243436672E0,4.706998467E-1,5.320838690E-1,-4.663057625E-1
6.253378391E0,4.216991365E-1,6.300853491E-1,-3.352820873E-1
6.263291568E0,3.183715343E-1,5.608451962E-1,-2.106498331E-1
6.273233287E0,2.320876420E-1,4.532566369E-1,-1.264964193E-1
6.283174953E0,1.532603949E-1,3.669727743E-1,-8.814803511E-2
6.293128443E0,6.378082931E-2,2.892107666E-1,-1.137136221E-1
6.303070110E0,-3.635107726E-2,2.284924835E-1,-1.840189993E-1
6.313011828E0,-1.343525201E-1,2.263620198E-1,-2.671071887E-1
6.322936047E0,-2.270277888E-1,2.434057444E-1,-3.587172329E-1
6.332877766E0,-2.770937383E-1,1.869483888E-1,-3.970656097E-1
6.342819433E0,-2.877460718E-1,1.581871063E-1,-4.130440950E-1
6.352717141E0,-2.376801223E-1,1.070559174E-1,-4.268921316E-1
6.362658808E0,-8.322133124E-2,-3.462007269E-2,-2.948032320E-1
6.372600474E0,1.213034093E-1,-1.166430190E-1,-1.222354919E-1
6.382546933E0,3.130453527E-1,-1.006645188E-1,4.394086078E-2
6.392488651E0,4.643084407E-1,-1.794917583E-1,2.314218730E-1
6.402430318E0,6.070496440E-1,-2.806889117E-1,3.858806491E-1
6.412369433E0,7.263557911E-1,-2.508623898E-1,4.446016252E-1
6.422311151E0,7.433995008E-1,-1.816222370E-1,3.560541272E-1
6.432252818E0,6.240934134E-1,-8.362079412E-2,1.813559234E-1
6.442177974E0,4.185034335E-1,1.049254537E-1,3.435376659E-2
6.452119693E0,1.564560980E-1,3.786903322E-1,-6.471290439E-2
6.462061412E0,-1.854836941E-1,6.663032770E-1,-1.392792165E-1
6.471984224E0,-6.062507629E-1,9.176982641E-1,-2.394111156E-1
6.481925891E0,-1.070692301E0,1.068961382E0,-2.852161527E-1
6.491867558E0,-1.423284531E0,8.942631483E-1,-2.085193694E-1
6.501811516E0,-1.446719646E0,2.572537661E-1,-6.684337556E-2
6.511753235E0,-1.259238601E0,-5.651060939E-1,5.459319428E-2
6.521694901E0,-1.151650071E0,-1.269225121E0,1.078548431E-1
6.531638495E0,-1.062170506E0,-1.426879644E0,1.898777932E-1
6.541580162E0,-8.778851628E-1,-1.021025896E0,5.649729371E-1
6.551521881E0,-7.692313790E-1,-7.951964736E-1,9.473916292E-1
6.561447401E0,-8.352758288E-1,-7.334129214E-1,8.749557734E-1
6.571389068E0,-8.161016703E-1,-3.009283245E-1,5.649729371E-1
6.581330735E0,-7.820141912E-1,1.081211492E-1,4.978632927E-1
6.591258860E0,-8.469933867E-1,3.307548463E-1,4.584496617E-1
6.601200578E0,-6.722952127E-1,5.661713481E-1,1.504641622E-1
6.611142245E0,-3.122464418E-1,7.877398133E-1,-6.471290439E-2
6.621082922E0,1.383471340E-1,6.822817326E-1,-2.117150575E-1
6.631024589E0,6.208977103E-1,4.266258180E-1,-4.545882046E-1
6.640966256E0,9.085106254E-1,3.169068098E-1,-7.187659740E-1
6.650896360E0,9.873378873E-1,3.488638103E-1,-8.476591706E-1
6.660838026E0,1.007577300E0,3.786903322E-1,-7.145050764E-1
6.670779745E0,9.809464812E-1,2.860150635E-1,-5.131760240E-1
6.680683287E0,8.850755095E-1,2.359491140E-1,-3.587172329E-1
6.690624953E0,7.945306897E-1,2.039921284E-1,-2.521939278E-1
6.700566620E0,6.933335662E-1,1.528609395E-1,-1.680405140E-1
6.710502401E0,5.420704484E-1,1.848179251E-1,-1.051917598E-1
6.720444120E0,3.908073604E-1,2.018616647E-1,-4.340824485E-2
6.730385787E0,2.917406857E-1,1.656437367E-1,3.967992961E-2
6.740330110E0,2.523270845E-1,1.581871063E-1,8.655018359E-2
6.750271776E0,2.672403455E-1,1.816222370E-1,5.459319428E-2
6.760213443E0,3.023930192E-1,1.741656065E-1,-3.275591508E-2
6.770157037E0,3.364804685E-1,1.059906855E-1,-1.115831584E-1
6.780098703E0,3.897421360E-1,3.355484083E-2,-1.350182891E-1
6.790040422E0,4.472647011E-1,7.190322876E-2,-9.986559302E-2
6.799969797E0,5.154396296E-1,1.422086060E-1,-6.151720881E-2
6.809911516E0,5.644403696E-1,1.091863886E-1,-4.660394415E-2
6.819853183E0,5.665708184E-1,2.663082443E-3,-4.021254554E-2
6.829758339E0,5.228962898E-1,-6.338136643E-2,-1.784265228E-2
6.839700058E0,4.536561072E-1,-2.396774292E-2,-8.255556226E-3
6.849641724E0,3.567199111E-1,1.187734827E-1,-7.190322969E-3
6.859599328E0,2.470009029E-1,3.051892519E-1,-3.994623665E-3
6.869541047E0,1.404775977E-1,4.276910722E-1,-7.190322969E-3
6.879482714E0,2.436720580E-2,4.244953692E-1,-2.103835158E-2
6.889384276E0,-1.034607589E-1,3.659075499E-1,-4.447348043E-2
6.899325943E0,-2.302234918E-1,3.254286945E-1,-9.773512930E-2
6.909267610E0,-3.868127465E-1,2.913412452E-1,-1.914756298E-1
6.919202714E0,-5.998593569E-1,2.609820850E-2,-2.745638192E-1
6.929144381E0,-7.681661844E-1,-5.001268983E-1,-2.170412242E-1
6.939086047E0,-7.681661844E-1,-6.236939430E-1,2.612484097E-1
6.949004016E0,-6.893389225E-1,-2.945369184E-1,7.492582798E-1
6.958945683E0,-6.978607774E-1,-9.853405505E-2,7.684324980E-1
6.968887349E0,-7.628399730E-1,-6.444659829E-2,6.555177569E-1
6.978840526E0,-8.235582709E-1,-2.221010923E-1,6.501916051E-1
6.988782245E0,-9.087769389E-1,-3.488638103E-1,7.663019896E-1
6.998723912E0,-1.069627166E0,2.263620198E-1,1.090132833E0
7.008669120E0,-1.029148221E0,1.003982067E0,1.039001703E0
7.018610839E0,-8.161016703E-1,1.339530468E0,5.521901846E-1
7.028552506E0,-5.061188340E-1,1.115831614E0,6.311506033E-2
7.038479381E0,-1.471353173E-1,7.557828426E-1,-3.608476818E-1
7.048421099E0,2.416747361E-1,2.487319112E-1,-7.294183373E-1
7.058362766E0,5.974625945E-1,-2.290250920E-2,-9.509868026E-1
7.068281568E0,8.850755095E-1,3.462007269E-2,-1.036205411E0
7.078222506E0,1.127948642E0,6.551183015E-2,-9.882699251E-1
7.088163443E0,1.236602426E0,-4.793548491E-3,-7.560491562E-1
7.098086881E0,1.239798069E0,-1.198387146E-1,-5.355458856E-1
7.108027766E0,1.201449752E0,-1.422086060E-1,-3.821523488E-1
7.117968703E0,1.121557236E0,-9.001219273E-2,-2.596505582E-1
7.127886516E0,9.809464812E-1,-2.929390781E-2,-2.415415943E-1
7.137827506E0,7.902697325E-1,1.177082509E-1,-2.244978547E-1
7.147768391E0,6.294195652E-1,2.252967805E-1,-1.382139921E-1
7.157744485E0,4.664389193E-1,1.560566425E-1,-3.595161438E-2
7.167685422E0,2.544575334E-1,3.035914153E-2,5.139749497E-2
7.177626412E0,2.649767138E-2,-2.663082443E-3,1.195724085E-1
7.187523964E0,-2.121145278E-1,7.509893179E-2,1.664426625E-1
7.197464901E0,-4.432700872E-1,1.986659616E-1,1.994648874E-1
7.207405839E0,-6.467295885E-1,1.688394397E-1,2.420742065E-1
7.217360683E0,-8.150364161E-1,-1.118494663E-2,3.145100474E-1
7.227301620E0,-9.226249456E-1,-1.603175700E-1,4.062532485E-1
7.237242558E0,-9.471253157E-1,-2.007964253E-1,4.957328141E-1
7.247186151E0,-8.970593810E-1,-1.294258088E-1,5.553858876E-1
7.257127141E0,-8.033188581E-1,-1.597849536E-3,5.798861980E-1
7.267068026E0,-7.138392925E-1,1.113168523E-1,5.841471553E-1
7.276969641E0,-5.924026966E-1,1.539261788E-1,5.969299674E-1
7.286910578E0,-4.272916019E-1,2.466014475E-1,5.766905546E-1
7.296851568E0,-2.728328109E-1,4.681699276E-1,4.872109592E-1
7.306776360E0,-1.439396143E-1,7.728265524E-1,3.528584540E-1
7.316717297E0,-5.552527308E-2,1.057243824E0,1.813559234E-1
7.326658235E0,-4.806863889E-2,1.179745555E0,2.689713426E-2
7.336601568E0,-1.364829838E-1,1.110505462E0,-8.601756394E-2
7.346542453E0,-1.961360276E-1,9.006544948E-1,-2.436720580E-1
7.356483391E0,-2.355496585E-1,2.093182951E-1,-3.683043122E-1
7.366404589E0,-5.061188340E-1,-7.749570012E-1,-3.022598624E-1
7.376345578E0,-6.541862488E-1,-5.789541602E-1,9.081111848E-2
7.386286516E0,-4.560528994E-1,4.031907022E-1,5.436683297E-1
7.396259068E0,-2.994636297E-1,3.169068098E-1,4.541887343E-1
7.406200058E0,-3.528584540E-2,-3.946688473E-1,2.250304818E-1
7.416140995E0,1.905435622E-1,-5.523233414E-1,5.639077425E-1
7.426035683E0,2.619141638E-1,-1.070559174E-1,1.164699197E0
7.435976568E0,3.716331720E-1,6.231613085E-2,1.287200928E0
7.445917506E0,3.876116574E-1,-2.039921284E-1,9.505873322E-1
7.455879224E0,2.896102369E-1,-3.435376585E-1,3.912068307E-1
7.465820110E0,2.789579034E-1,-6.551183015E-2,-3.278254569E-1
7.475761047E0,4.089163244E-1,2.327534109E-1,-9.445953965E-1
7.485664381E0,6.049191952E-1,1.954702586E-1,-1.286535144E0
7.495605370E0,7.093120217E-1,1.262301207E-1,-1.353644848E0
7.505546308E0,6.560503840E-1,1.251648813E-1,-1.230077863E0
7.515475891E0,5.718969703E-1,4.314193875E-2,-9.914656281E-1
7.525416828E0,5.410051942E-1,-1.081211492E-1,-6.559172273E-1
7.535357818E0,5.079829693E-1,-2.007964253E-1,-3.661738634E-1
7.545304120E0,4.696346223E-1,-2.178401500E-1,-1.627143472E-1
7.555245058E0,4.472647011E-1,-1.272953451E-1,-3.701684624E-2
7.565185995E0,4.344819188E-1,-5.485950038E-2,2.263620123E-2
7.575128495E0,4.174381793E-1,-6.764229387E-2,6.204982474E-2
7.585068912E0,3.918725848E-1,-1.443390697E-1,8.015878499E-2
7.595009276E0,3.609808385E-1,-2.380795777E-1,5.246272683E-2
7.604922089E0,3.205019832E-1,-2.828193605E-1,-1.784265228E-2
7.614862453E0,2.640446424E-1,-2.742975056E-1,-1.083874628E-1
7.624802870E0,1.916087866E-1,-1.901440918E-1,-1.893451661E-1
7.634766412E0,8.828118443E-2,-1.757634431E-2,-2.489982247E-1
7.644706776E0,-3.848154470E-2,1.496652365E-1,-2.894770801E-1
7.654647141E0,-1.620485783E-1,2.434057444E-1,-3.214340508E-1
7.664582662E0,-2.291582525E-1,2.508623898E-1,-3.065207899E-1
7.674523026E0,-2.057231218E-1,1.869483888E-1,-2.255630940E-1
7.684463443E0,-1.407439113E-1,1.283605844E-1,-1.179745570E-1
7.694393703E0,-8.535179496E-2,9.427312016E-2,-1.677742042E-2
7.704334068E0,-4.061200842E-2,7.616416365E-2,6.418029219E-2
7.714274485E0,-1.078548469E-2,9.640359133E-2,1.280942708E-1
7.724188183E0,3.062544856E-3,1.219691783E-1,1.994648874E-1
7.734128599E0,-5.459319334E-3,5.698996782E-2,2.942706347E-1
7.744068964E0,-9.280842543E-2,-7.296846062E-2,3.709673882E-1
7.754026308E0,-2.611152530E-1,-2.039921284E-1,3.699021637E-1
7.763966672E0,-5.029231310E-1,-4.234301150E-1,2.740311921E-1
7.773907089E0,-8.363410830E-1,-8.207620382E-1,1.653774232E-1
7.783837245E0,-1.027017832E0,-9.219591618E-1,3.549889028E-1
7.793777610E0,-8.991898298E-1,-5.991935730E-1,1.060306311E0
7.803718026E0,-6.669690013E-1,-2.402100414E-1,1.603575110E0
7.813647922E0,-6.147726178E-1,1.933397949E-1,1.504508495E0
7.823588287E0,-7.031869292E-1,3.211677670E-1,1.191329956E0
7.833528703E0,-6.946650743E-1,1.560566425E-1,9.324783683E-1
7.843434849E0,-6.456643939E-1,4.212996662E-1,6.832138300E-1
7.853375266E0,-5.540543199E-1,6.577813625E-1,2.836183012E-1
7.863315631E0,-2.941374779E-1,4.671046734E-1,-2.585853040E-1
7.873258912E0,-4.167724028E-2,1.837527007E-1,-7.038527131E-1
7.883199276E0,2.193048447E-1,-1.624480337E-1,-1.136337280E0
7.893139693E0,4.952002168E-1,-4.436695576E-1,-1.426080704E0
7.903076620E0,6.656374931E-1,-3.467333615E-1,-1.442059159E0
7.913017037E0,7.806826234E-1,-1.059906855E-1,-1.232208252E0
7.922957401E0,8.627055883E-1,-1.358172148E-1,-9.147688746E-1
7.932907506E0,7.881392837E-1,-2.103835195E-1,-5.888075829E-1
7.942847870E0,6.507242322E-1,-2.071878165E-1,-3.011946380E-1
7.952788287E0,6.347457170E-1,-2.274272442E-1,-2.210358530E-2
7.962701985E0,6.954640150E-1,-1.507304758E-1,1.462032348E-1
7.972642401E0,6.848116517E-1,-2.077204362E-2,1.728340536E-1
7.982582766E0,6.187672615E-1,7.190322876E-2,1.387466043E-1
7.992509276E0,5.431357026E-1,9.107742459E-2,7.589785010E-2
8.002449693E0,4.728302956E-1,3.142437339E-2,-1.571218669E-2
8.012390058E0,4.206338823E-1,-4.740286991E-2,-1.264964193E-1
8.022321308E0,3.844159544E-1,-7.083799690E-2,-2.372806519E-1
8.032261724E0,3.631113172E-1,-9.054481052E-3,-3.352820873E-1
8.042202089E0,3.268933892E-1,1.464695334E-1,-3.746957183E-1
8.052164849E0,2.352833450E-1,3.115806580E-1,-3.480648994E-1
8.062105214E0,1.532603949E-1,3.744294047E-1,-3.118469715E-1
8.072045578E0,1.426080763E-1,3.190372884E-1,-2.671071887E-1
8.081982974E0,1.649779677E-1,1.826874614E-1,-1.829537749E-1
8.091923026E0,1.777607650E-1,7.083799690E-2,-1.041265279E-1
8.101862974E0,1.649779677E-1,4.314193875E-2,-3.914731368E-2
8.111765683E0,1.255643368E-1,5.379426852E-2,3.009283356E-2
8.121705683E0,5.632419512E-2,6.551183015E-2,1.003982127E-1
8.131645631E0,-4.913387448E-2,5.592473224E-2,1.579207927E-1
8.141608183E0,-2.035926580E-1,6.018566713E-2,2.186390758E-1
8.151548183E0,-4.198349714E-1,4.207670316E-2,2.825530469E-1
8.161488131E0,-6.392729878E-1,-8.255556226E-2,3.294233084E-1
8.171420266E0,-7.660356760E-1,-2.231663167E-1,3.944025338E-1
8.181360318E0,-7.692313790E-1,-2.455362082E-1,4.605801404E-1
8.191300266E0,-7.276872993E-1,-2.838846147E-1,4.350145459E-1
8.201241360E0,-7.756227851E-1,-4.202344418E-1,3.134448230E-1
8.211181360E0,-8.001231551E-1,-5.438014865E-1,3.102491200E-1
8.221121360E0,-7.553833723E-1,-4.681699276E-1,7.045184970E-1
8.231017245E0,-7.894708514E-1,-3.222329915E-1,1.124220252E0
8.240957245E0,-9.567124248E-1,-2.806889117E-1,1.254178762E0
8.250897193E0,-1.201715946E0,-2.061225921E-1,1.303179502E0
8.260849068E0,-1.382805586E0,1.624480337E-1,1.336201668E0
8.270789068E0,-1.548982024E0,6.758903265E-1,1.413963675E0
8.280729016E0,-1.468024254E0,7.696308494E-1,1.253113508E0
8.290656620E0,-1.056844354E0,6.588466167E-1,6.640396118E-1
8.300596620E0,-6.605776548E-1,6.758903265E-1,-9.320789017E-3
8.310536568E0,-3.292901516E-1,4.713656008E-1,-5.280892849E-1
8.320494485E0,9.786828607E-2,5.912043154E-2,-9.701609612E-1
8.330434485E0,5.175700784E-1,-1.688394397E-1,-1.308905125E0
8.340374485E0,7.753564715E-1,-2.167749256E-1,-1.489994645E0
8.350305943E0,8.989235163E-1,-1.837527007E-1,-1.551778197E0
8.360245943E0,1.011838198E0,-1.667089611E-1,-1.418624043E0
8.370185891E0,1.137535691E0,-1.081211492E-1,-1.055379629E0
8.380105735E0,1.179079771E0,5.805519968E-2,-6.995918155E-1
8.390045735E0,1.148187995E0,1.880136281E-1,-4.311530590E-1
8.399985683E0,1.132209539E0,1.997311860E-1,-2.181064636E-1
8.409915891E0,1.116231084E0,2.263620198E-1,-7.430000603E-2
8.419855891E0,1.029947162E0,2.796236575E-1,1.944050193E-2
8.429795839E0,8.808145523E-1,2.892107666E-1,8.868064731E-2
8.439725006E0,6.965292692E-1,2.561885417E-1,1.291595101E-1
8.449665006E0,4.952002168E-1,1.880136281E-1,1.217028722E-1
8.459605006E0,3.002625704E-1,6.764229387E-2,8.122401685E-2
8.469530891E0,1.255643368E-1,-6.125089899E-2,3.541899845E-2
8.479470891E0,-5.126433820E-2,-1.006645188E-1,-6.125089712E-3
8.489410839E0,-2.376801223E-1,-9.640359133E-2,-2.210358530E-2
8.499370162E0,-4.272916019E-1,-1.422086060E-1,-1.464695390E-2
8.509310162E0,-6.147726178E-1,-1.986659616E-1,7.722939365E-3
8.519250110E0,-7.394048572E-1,-1.922745556E-1,4.500609636E-2
8.529184016E0,-7.298177481E-1,-1.517957002E-1,1.334204376E-1
8.539124016E0,-6.147726178E-1,-1.496652365E-1,2.143781483E-1
8.549063964E0,-4.880098701E-1,-2.199706137E-1,2.474003732E-1
8.559003599E0,-3.623123765E-1,-3.062545061E-1,2.484655976E-1
8.568943599E0,-2.217016220E-1,-3.105154335E-1,2.367480397E-1
8.578883599E0,-8.961272985E-2,-1.880136281E-1,2.015953511E-1
8.588815578E0,1.797580719E-2,6.444659829E-2,1.302247345E-1
8.598755110E0,8.508548886E-2,2.519276142E-1,1.517957076E-2
8.608694693E0,8.721595258E-2,2.476666719E-1,-1.360835135E-1
8.618616099E0,8.295502514E-2,2.551233172E-1,-2.777595222E-1
8.628555631E0,1.021292135E-1,5.224968195E-1,-3.427387178E-1
8.638495214E0,1.223686412E-1,8.260881901E-1,-3.448691964E-1
8.648428860E0,-1.717688330E-2,5.278229713E-1,-3.320863843E-1
8.658368391E0,-4.496614933E-1,-2.135792226E-1,-2.809551954E-1
8.668307974E0,-7.212958932E-1,-4.223648906E-1,-1.659100503E-1
8.678242037E0,-5.934679508E-1,-2.508623898E-1,2.793573737E-1
8.688181620E0,-5.870765448E-1,-3.989297748E-1,8.387378454E-1
8.698121151E0,-7.404701114E-1,-5.885412693E-1,8.099765778E-1
8.708072506E0,-7.724270821E-1,-3.776251078E-1,7.673672438E-1
8.718012037E0,-6.307511330E-1,2.157096863E-1,1.173220992E0
8.727951620E0,-3.697690070E-1,4.564523399E-1,1.312766552E0
8.737889797E0,-9.174319357E-2,2.370143533E-1,9.900009632E-1
8.747829328E0,1.063901484E-1,5.805519968E-2,4.605801404E-1
8.757768912E0,2.832188308E-1,2.716344222E-2,-2.063889056E-1
8.767703391E0,5.026568174E-1,-4.101147130E-2,-8.497896194E-1
8.777642974E0,7.263557911E-1,-3.019935489E-1,-1.293991804E0
8.787582506E0,8.712274432E-1,-3.701684773E-1,-1.505973220E0
8.797523860E0,8.925321102E-1,-1.262301207E-1,-1.463363886E0
8.807463443E0,9.095758200E-1,1.667089611E-1,-1.174685717E0
8.817402974E0,9.670984149E-1,2.945369184E-1,-7.997236848E-1
8.827312714E0,9.095758200E-1,2.476666719E-1,-4.844147265E-1
8.837252245E0,7.892045379E-1,1.379476786E-1,-3.150426745E-1
8.847191828E0,7.135729790E-1,1.304910481E-1,-2.063889056E-1
8.857135058E0,6.411371231E-1,1.901440918E-1,-1.350182891E-1
8.867074589E0,5.537880063E-1,2.007964253E-1,-8.814803511E-2
8.877014172E0,4.621779919E-1,1.454043090E-1,-4.234301299E-2
8.886973026E0,3.918725848E-1,5.166380107E-2,-1.251648832E-2
8.896912610E0,3.620460629E-1,-7.403369248E-2,-9.320789017E-3
8.906852193E0,3.609808385E-1,-1.709699035E-1,-2.742975019E-2
8.916783756E0,3.577851355E-1,-1.635132730E-1,-4.553871229E-2
8.926723339E0,3.439370990E-1,-9.214265645E-2,-6.684337556E-2
8.936662922E0,3.258281648E-1,-6.924014539E-3,-9.027849883E-2
8.946571776E0,2.693707943E-1,7.296846062E-2,-1.115831584E-1
8.956511308E0,1.958697289E-1,1.219691783E-1,-1.318225861E-1
8.966450891E0,1.404775977E-1,1.443390697E-1,-1.392792165E-1
8.976408026E0,8.828118443E-2,1.816222370E-1,-1.286268830E-1
8.986347610E0,2.756290510E-2,2.444709837E-1,-9.027849883E-2
8.996287141E0,-2.463351376E-2,3.147763610E-1,-3.701684624E-2
9.006232141E0,-7.469946891E-2,3.957340717E-1,2.050573565E-2
9.016171672E0,-1.119826213E-1,4.979964495E-1,7.376738638E-2
9.026111203E0,-1.567224115E-1,6.268896461E-1,1.206376404E-1
9.036038599E0,-2.483324558E-1,7.323477268E-1,1.653774232E-1
9.045978183E0,-3.303554058E-1,7.280867696E-1,1.994648874E-1
9.055917766E0,-3.676385581E-1,6.109111309E-1,2.197043151E-1
9.065818287E0,-4.230306745E-1,3.446028829E-1,2.260957062E-1
9.075757818E0,-5.721632838E-1,-6.977276504E-2,2.399437428E-1
9.085697401E0,-7.585790753E-1,-5.043878555E-1,2.729659677E-1
9.095651047E0,-8.629719019E-1,-6.545857191E-1,4.392754734E-1
9.105590318E0,-8.853418231E-1,-3.829512596E-1,8.110417724E-1
9.115529537E0,-8.917331696E-1,-6.125089899E-2,1.027284145E0
9.125476672E0,-9.300816059E-1,2.263620198E-1,8.419335485E-1
9.135415891E0,-9.641690254E-1,3.371462524E-1,4.765586257E-1
9.145355110E0,-1.081344724E0,1.225017942E-2,2.303566486E-1
9.155275578E0,-1.223020673E0,-1.864157803E-2,2.719007432E-1
9.165214849E0,-1.004647851E0,2.396774292E-2,2.921401560E-1
9.175154068E0,-6.179683208E-1,1.219691783E-1,7.163692266E-2
9.185104797E0,-3.548557460E-1,4.159734845E-1,-2.809551954E-1
9.195044016E0,-6.830807030E-2,3.861469626E-1,-6.889394522E-1
9.204983287E0,3.205019832E-1,6.444659829E-2,-1.036205411E0
9.214896933E0,6.485937834E-1,-8.255556226E-2,-1.253512979E0
9.224836151E0,8.414009213E-1,-5.059856921E-2,-1.341927290E0
9.234775370E0,9.926640391E-1,-2.503297664E-2,-1.184272766E0
9.244714120E0,1.130079031E0,-8.681648970E-2,-7.826799750E-1
9.254653339E0,1.136470437E0,-1.336867511E-1,-4.545882046E-1
9.264592558E0,1.036338568E0,-1.177082509E-1,-2.660419345E-1
9.274544953E0,9.585765600E-1,-2.716344222E-2,-1.126483902E-1
9.284484224E0,8.744231462E-1,1.006645188E-1,-2.210358530E-2
9.294423391E0,7.391385436E-1,1.837527007E-1,1.837527007E-2
9.304357818E0,5.942668915E-1,1.805569977E-1,5.459319428E-2
9.314297089E0,4.749607742E-1,9.320788831E-2,7.270215452E-2
9.324236308E0,3.758940995E-1,-2.290250920E-2,5.565842614E-2
9.334148964E0,2.864145339E-1,-1.262301207E-1,3.462007269E-3
9.344088235E0,2.193048447E-1,-1.901440918E-1,-5.832150951E-2
9.354027453E0,1.798912287E-1,-2.071878165E-1,-1.105179265E-1
9.363993235E0,1.724345982E-1,-2.082530558E-1,-1.509967744E-1
9.373932506E0,1.894783229E-1,-1.986659616E-1,-1.659100503E-1
9.383871724E0,2.054568231E-1,-1.816222370E-1,-1.552577168E-1
9.393816672E0,1.948044896E-1,-2.007964253E-1,-1.328878254E-1
9.403755943E0,1.489994675E-1,-2.956021726E-1,-1.360835135E-1
9.413695162E0,7.443315536E-2,-4.149082601E-1,-1.669752747E-1
9.423594797E0,-2.569874749E-2,-4.681699276E-1,-1.669752747E-1
9.433534016E0,-1.237001866E-1,-4.330172241E-1,-1.233007237E-1
9.443473235E0,-1.897446364E-1,-3.382114768E-1,-7.110430300E-2
9.453433339E0,-2.217016220E-1,-2.327534109E-1,-1.677742042E-2
9.463372558E0,-2.493976802E-1,-1.539261788E-1,3.648423031E-2
9.473311776E0,-2.515281439E-1,-8.042509109E-2,1.099853069E-1
9.483247349E0,-2.142449915E-1,-5.592473224E-2,1.824211627E-1
9.493186620E0,-1.748313755E-1,-1.331541315E-2,2.260957062E-1
9.503125787E0,-1.801575422E-1,1.187734827E-1,2.101172209E-1
9.513059537E0,-2.962679267E-1,2.497971505E-1,9.720251709E-2
9.522998808E0,-4.794880152E-1,2.391448170E-1,-3.701684624E-2
9.532938026E0,-6.563166976E-1,8.894696087E-2,-8.175663650E-2
9.542868547E0,-8.384715319E-1,-5.272903293E-2,1.731003635E-2
9.552807818E0,-1.028082967E0,2.716344222E-2,2.697702646E-1
9.562747037E0,-1.194259405E0,2.732322812E-1,5.426030755E-1
9.572672141E0,-1.373218536E0,2.711018026E-1,5.596467853E-1
9.582611360E0,-1.491459370E0,-3.675054014E-2,2.793573737E-1
9.592550578E0,-1.400914550E0,-3.776251078E-1,-1.677742042E-2
9.602474068E0,-1.252847195E0,-5.853455663E-1,-2.849498391E-2
9.612412974E0,-1.133541107E0,-7.621742487E-1,1.568555683E-1
9.622351881E0,-8.235582709E-1,-9.145025611E-1,2.431394309E-1
9.632299953E0,-3.527252972E-1,-8.175663352E-1,1.888125539E-1
9.642238808E0,9.320789250E-4,-5.885412693E-1,-4.766917601E-2
9.652177766E0,3.226324618E-1,-4.458000064E-1,-4.034570158E-1
9.662122141E0,7.199643850E-1,-4.937354922E-1,-7.358096838E-1
9.672061099E0,1.087469816E0,-6.364767551E-1,-9.765523672E-1
9.682000058E0,1.279211760E0,-5.714974999E-1,-1.052183867E0
9.691936099E0,1.272820354E0,-2.934716940E-1,-9.286168814E-1
9.701875006E0,1.191862583E0,-4.207670316E-2,-6.761566401E-1
9.711814016E0,1.101317763E0,1.326215118E-1,-4.098483920E-1
9.721736672E0,1.023555756E0,2.764279842E-1,-2.010627389E-1
9.731675578E0,9.862726331E-1,4.458000064E-1,-5.938674137E-2
9.741614485E0,9.266195893E-1,5.991935730E-1,2.689713426E-2
9.751545578E0,7.955959439E-1,6.183677912E-1,7.376738638E-2
9.761484485E0,6.358109713E-1,5.193011165E-1,1.057243794E-1
9.771423443E0,5.058525205E-1,3.840165138E-1,1.248985752E-1
9.781373235E0,4.174381793E-1,2.327534109E-1,1.185071766E-1
9.791312141E0,3.418066502E-1,7.083799690E-2,9.933298081E-2
9.801251151E0,2.917406857E-1,-5.379426852E-2,8.228924870E-2
9.811218391E0,2.651098669E-1,-4.527240247E-2,6.418029219E-2
9.821157297E0,2.267614752E-1,6.657706201E-2,4.394086078E-2
9.831096256E0,1.649779677E-1,1.443390697E-1,3.541899845E-2
9.840999901E0,9.254211932E-2,9.107742459E-2,-7.190322969E-3
9.850938808E0,7.323476952E-3,-6.125089899E-2,-8.921326697E-2
9.860877714E0,-9.174319357E-2,-2.199706137E-1,-1.691057384E-1
9.870838860E0,-2.089188248E-1,-3.232982159E-1,-2.159759998E-1
9.880777766E0,-3.207682967E-1,-3.872122169E-1,-2.351501882E-1
9.890716724E0,-4.113130867E-1,-3.744294047E-1,-2.255630940E-1
9.900643287E0,-4.858794212E-1,-2.402100414E-1,-1.840189993E-1
9.910582245E0,-5.497934222E-1,-1.438064594E-2,-9.134373069E-2
9.920521203E0,-5.593804717E-1,1.209039465E-1,2.157096937E-2
9.930430735E0,-4.667052329E-1,8.042509109E-2,1.174419373E-1
9.940369589E0,-3.111811876E-1,3.675054014E-2,1.930734813E-1
9.950308547E0,-1.758965999E-1,1.336867511E-1,2.101172209E-1
9.960255995E0,-1.535267085E-1,2.838846147E-1,1.142462417E-1
9.970194953E0,-3.537905216E-1,3.190372884E-1,-1.275616586E-1
9.980133860E0,-7.244915962E-1,1.368824393E-1,-3.054555655E-1
9.990075683E0,-1.012104511E0,-1.347519755E-1,-7.643046975E-2
1.000001464E1,-1.066431403E0,-1.901440918E-1,3.826849759E-1
1.000995360E1,-8.746894598E-1,-1.944050342E-1,5.127765536E-1
1.001990094E1,-7.287525535E-1,-3.781577200E-2,2.452699095E-1
1.002983990E1,-7.202306986E-1,3.062545061E-1,-7.003907114E-2
1.003977886E1,-5.710980296E-1,3.328853250E-1,-8.921326697E-2
1.004972350E1,-2.344844192E-1,1.597849536E-3,6.418029219E-2
1.005966240E1,1.095858440E-1,-3.115806580E-1,1.280942708E-1
1.006960136E1,3.013277948E-1,-4.308867455E-1,1.131810099E-1
1.007951058E1,4.376776218E-1,-4.830831885E-1,9.294158220E-2
1.008944943E1,6.006582975E-1,-4.820179343E-1,-4.766917601E-2
1.009938839E1,6.975944638E-1,-3.137111366E-1,-2.340849638E-1
1.010933464E1,7.093120217E-1,-9.533835202E-2,-2.724333405E-1
1.011927350E1,7.061163187E-1,2.183727734E-2,-2.308892608E-1
1.012921235E1,6.624417901E-1,1.272953451E-1,-1.797580719E-1
1.013916329E1,5.697665215E-1,2.295577228E-1,-1.222354919E-1
1.014910214E1,4.675041437E-1,3.201025128E-1,-8.282186836E-2
1.015904100E1,3.908073604E-1,3.818860352E-1,-6.045197323E-2
1.016894537E1,3.577851355E-1,3.829512596E-1,-3.914731368E-2
1.017888417E1,3.503285050E-1,3.019935489E-1,-1.251648832E-2
1.018882303E1,3.439370990E-1,1.688394397E-1,1.304910425E-2
1.019880209E1,3.439370990E-1,6.551183015E-2,3.435376659E-2
1.020874094E1,3.364804685E-1,5.592473224E-2,5.459319428E-2
1.021867975E1,3.258281648E-1,1.123820841E-1,7.589785010E-2
1.022858308E1,3.130453527E-1,1.081211492E-1,1.035939083E-1
1.023852188E1,2.981320918E-1,-1.544587873E-2,1.238333359E-1
1.024846074E1,2.970668674E-1,-2.167749256E-1,1.110505462E-1
1.025841428E1,3.109148741E-1,-3.765598834E-1,8.228924870E-2
1.026835313E1,2.725664973E-1,-4.149082601E-1,3.648423031E-2
1.027829193E1,1.308905035E-1,-3.882774413E-1,-6.125089712E-3
1.028825480E1,-7.363422960E-2,-3.286243975E-1,-6.125089712E-3
1.029819365E1,-2.696371078E-1,-2.252967805E-1,3.861469775E-2
1.030813251E1,-4.209001958E-1,-1.049254537E-1,1.217028722E-1
1.031805021E1,-5.071840882E-1,-4.740286991E-2,2.303566486E-1
1.032798907E1,-5.210320950E-1,-9.427312016E-2,3.177057505E-1
1.033792787E1,-4.933360517E-1,-2.380795777E-1,3.752283454E-1
1.034783287E1,-4.443353117E-1,-3.989297748E-1,4.093157947E-1
1.035777167E1,-3.900084496E-1,-4.415390790E-1,4.135767221E-1
1.036771053E1,-3.814865649E-1,-3.041240275E-1,3.613803089E-1
1.037765100E1,-5.093145370E-1,-1.544587873E-2,2.143781483E-1
1.038758980E1,-8.469933867E-1,2.625799477E-1,-1.997311972E-2
1.039752865E1,-1.371088028E0,8.575125784E-2,-2.138455361E-1
1.040746021E1,-1.788659453E0,-5.288882256E-1,-1.179745570E-1
1.041739902E1,-1.793985605E0,-7.270215154E-1,4.648410678E-1
1.042733787E1,-1.586265087E0,-4.074516296E-1,9.772181511E-1
1.043728370E1,-1.607569814E0,-1.997311860E-1,7.173013091E-1
1.044722251E1,-1.561764717E0,-1.358172148E-1,1.547250897E-1
1.045716131E1,-1.015300274E0,-1.027949899E-1,-5.059856921E-3
1.046712324E1,-4.113130867E-1,-2.007964253E-1,1.920082569E-1
1.047706209E1,2.436720580E-2,-4.745613039E-1,3.304885328E-1
1.048700089E1,3.268933892E-1,-8.090444803E-1,2.825530469E-1
1.049690865E1,5.601794124E-1,-7.866745591E-1,2.687050402E-1
1.050684745E1,8.158353567E-1,-5.491276383E-1,2.676397860E-1
1.051678631E1,1.018229604E0,-2.306229472E-1,1.408770680E-1
1.052675188E1,1.077882648E0,-8.362079412E-2,3.435376659E-2
1.053669074E1,1.062969446E0,1.438064594E-2,-2.210358530E-2
1.054662954E1,1.057643294E0,1.912093312E-1,-7.216953486E-2
1.055655001E1,1.035273314E0,4.127778113E-1,-1.158440933E-1
1.056648886E1,9.521851540E-1,6.354115009E-1,-1.776276082E-1
1.057642766E1,8.009220958E-1,7.291520238E-1,-2.660419345E-1
1.058638178E1,6.283543110E-1,6.833469868E-1,-3.512606025E-1
1.059632058E1,4.930697381E-1,5.704323053E-1,-4.077179432E-1
1.060625943E1,4.025249183E-1,4.202344418E-1,-4.396749437E-1
1.061618344E1,3.300890923E-1,2.444709837E-1,-4.450010955E-1
1.062612214E1,2.693707943E-1,6.444659829E-2,-4.311530590E-1
1.063606089E1,2.342181057E-1,-1.070559174E-1,-4.183702767E-1
1.064599308E1,2.139786780E-1,-2.604494691E-1,-4.045222402E-1
1.065593178E1,1.894783229E-1,-3.307548463E-1,-3.736304939E-1
1.066587053E1,1.415428370E-1,-3.009283245E-1,-3.161078990E-1
1.067582344E1,7.975932211E-2,-1.944050342E-1,-2.330197245E-1
1.068576214E1,4.993279651E-2,-6.551183015E-2,-1.488663107E-1
1.069570084E1,8.721595258E-2,-4.846810177E-2,-8.282186836E-2
1.070560422E1,1.319557428E-1,-1.358172148E-1,-1.864157850E-3
1.071554292E1,9.893351793E-2,-1.986659616E-1,5.565842614E-2
1.072548162E1,1.797580719E-2,-2.348838747E-1,8.548495173E-2
1.073542902E1,-5.339480564E-2,-1.869483888E-1,1.142462417E-1
1.074536777E1,-9.387365729E-2,-2.929390781E-2,1.291595101E-1
1.075530646E1,-9.919982404E-2,1.741656065E-1,1.248985752E-1
1.076522870E1,-8.961272985E-2,3.296896219E-1,1.195724085E-1
1.077516735E1,-8.748225868E-2,3.744294047E-1,1.217028722E-1
1.078510610E1,-8.322133124E-2,3.147763610E-1,1.462032348E-1
1.079505058E1,-7.363422960E-2,2.199706137E-1,1.877473146E-1
1.080498933E1,-1.077216864E-1,1.517957002E-1,2.026605755E-1
1.081492797E1,-2.366148829E-1,1.571218669E-1,1.483336985E-1
1.082487891E1,-4.411396384E-1,4.953333735E-2,1.517957076E-2
1.083481766E1,-7.990579009E-1,-5.065183043E-1,-1.669752747E-1
1.084475636E1,-1.185737491E0,-1.119027257E0,-2.564548552E-1
1.085469506E1,-1.171889424E0,-1.030612946E0,1.547250897E-1
1.086463381E1,-9.098421335E-1,-7.408695817E-1,7.790848017E-1
1.087457251E1,-9.034507871E-1,-7.472609878E-1,7.173013091E-1
1.088452214E1,-1.008908868E0,-7.632394433E-1,1.898777932E-1
1.089446084E1,-8.981245756E-1,-4.308867455E-1,1.003982127E-1
1.090439954E1,-5.647066832E-1,-9.640359133E-2,3.134448230E-1
1.091431157E1,-1.940055639E-1,-1.549914032E-1,2.623136342E-1
1.092425021E1,1.127815470E-1,-1.848179251E-1,-5.406057462E-2
1.093418891E1,4.611127377E-1,8.042509109E-2,-4.236964285E-1
1.094415183E1,8.062482476E-1,1.017297506E-1,-8.487244248E-1
1.095409058E1,1.051251888E0,-2.503297664E-2,-1.176816225E0
1.096402928E1,1.116231084E0,1.597849536E-3,-1.272687197E0
1.097397443E1,1.027816772E0,1.336867511E-1,-1.140598297E0
1.098391318E1,9.479242563E-1,2.434057444E-1,-8.625724316E-1
1.099385188E1,8.840102553E-1,2.284924835E-1,-6.133078933E-1
1.100377032E1,7.785521746E-1,1.773612946E-1,-3.938699067E-1
1.101370902E1,6.208977103E-1,2.306229472E-1,-2.404763550E-1
1.102364771E1,4.515256584E-1,2.870802879E-1,-1.605838835E-1
1.103357605E1,3.247629106E-1,2.497971505E-1,-8.708280325E-2
1.104351475E1,2.406095117E-1,1.336867511E-1,-1.677742042E-2
1.105345344E1,1.841521561E-1,-7.989247330E-3,3.861469775E-2
1.106338068E1,1.649779677E-1,-1.645784974E-1,9.826774895E-2
1.107331943E1,1.713693589E-1,-3.147763610E-1,1.547250897E-1
1.108325813E1,1.841521561E-1,-4.074516296E-1,1.877473146E-1
1.109322521E1,1.820216924E-1,-4.244953692E-1,2.154433727E-1
1.110316391E1,1.362166703E-1,-3.286243975E-1,2.623136342E-1
1.111310261E1,3.821523488E-2,-1.219691783E-1,2.665745616E-1
1.112300667E1,-5.765573680E-2,-6.924014539E-3,2.026605755E-1
1.113294521E1,-1.077216864E-1,-4.314193875E-2,1.547250897E-1
1.114288376E1,-1.119826213E-1,-9.001219273E-2,1.621817350E-1
1.115282464E1,-8.215609938E-2,-6.444659829E-2,1.525946259E-1
1.116276318E1,-6.724283099E-2,-5.698996782E-2,8.441971987E-2
1.117270167E1,-9.706936032E-2,-9.427312016E-2,4.607132822E-2
1.118265146E1,-1.513962448E-1,-9.214265645E-2,6.311506033E-2
1.119258995E1,-2.131797522E-1,-1.011971384E-2,9.613727778E-2
1.120252844E1,-2.930722237E-1,7.829462737E-2,1.376813650E-1
1.121246365E1,-3.921388984E-1,9.746882319E-2,1.834863871E-1
1.122240214E1,-4.762923121E-1,5.166380107E-2,2.175738513E-1
1.123234068E1,-5.231625438E-1,4.793548491E-3,2.495308369E-1
1.124229620E1,-5.402063131E-1,1.011971384E-2,2.687050402E-1
1.125223469E1,-5.306192040E-1,6.657706201E-2,2.804225981E-1
1.126217318E1,-5.295539498E-1,1.113168523E-1,3.113143444E-1
1.127207386E1,-5.934679508E-1,2.178401500E-1,3.549889028E-1
1.128201240E1,-6.488600373E-1,4.479304850E-1,3.688369393E-1
1.129195089E1,-7.916013002E-1,4.298215210E-1,3.209014535E-1
1.130191094E1,-1.169759035E0,-8.575125784E-2,2.165086120E-1
1.131184943E1,-1.379609942E0,-4.404738545E-1,2.761616707E-1
1.132178792E1,-1.160171866E0,-1.379476786E-1,6.491263509E-1
1.133173105E1,-9.481905699E-1,5.858781748E-3,6.118432283E-1
1.134166959E1,-7.053174376E-1,-2.519276142E-1,-3.595161438E-2
1.135160808E1,-4.464657903E-1,-2.221010923E-1,-3.523258269E-1
1.136152574E1,-1.386134475E-1,-4.420717061E-2,-3.651086092E-1
1.137146422E1,1.649779677E-1,-2.103835195E-1,-3.629781604E-1
1.138140277E1,3.002625704E-1,-3.669727743E-1,-2.468677461E-1
1.139135912E1,3.940030634E-1,-2.668408751E-1,-1.478010863E-1
1.140129761E1,6.017234921E-1,-7.935985923E-2,-1.733666807E-1
1.141123615E1,8.286181092E-1,1.219691783E-1,-2.138455361E-1
1.142117396E1,9.159672260E-1,3.147763610E-1,-2.053236663E-1
1.143111245E1,9.255543351E-1,4.681699276E-1,-2.053236663E-1
1.144105100E1,8.978582621E-1,5.491276383E-1,-2.042584270E-1
1.145099402E1,8.158353567E-1,5.320838690E-1,-1.701709777E-1
1.146093256E1,7.135729790E-1,4.553871155E-1,-1.435401440E-1
1.147087105E1,6.251586080E-1,3.904078901E-1,-1.754971445E-1
1.148077480E1,5.442008972E-1,3.541899920E-1,-2.426068187E-1
1.149071334E1,4.675041437E-1,3.115806580E-1,-2.969337106E-1
1.150065188E1,4.344819188E-1,2.466014475E-1,-3.288906813E-1
1.151061698E1,4.366123974E-1,1.656437367E-1,-3.544562757E-1
1.152055547E1,4.589822888E-1,7.616416365E-2,-3.746957183E-1
1.153049396E1,5.111786723E-1,-2.716344222E-2,-3.661738634E-1
1.154042834E1,5.697665215E-1,-6.764229387E-2,-3.097164929E-1
1.155036683E1,6.187672615E-1,-5.326165119E-4,-2.127802968E-1
1.156030537E1,6.336805224E-1,1.507304758E-1,-9.880036116E-2
1.157025714E1,6.145063043E-1,2.945369184E-1,-4.979964346E-2
1.158019568E1,5.633751154E-1,3.232982159E-1,-7.003907114E-2
1.159013417E1,4.153077304E-1,3.286243975E-1,-1.115831584E-1
1.160006521E1,2.171743810E-1,3.786903322E-1,-1.659100503E-1
1.161000370E1,5.632419512E-2,4.266258180E-1,-1.797580719E-1
1.161994224E1,-5.978620425E-2,4.404738545E-1,-1.243659556E-1
1.162984459E1,-1.631138027E-1,3.967992961E-1,-2.956021577E-2
1.163978303E1,-2.536586225E-1,2.551233172E-1,8.548495173E-2
1.164972141E1,-3.165073693E-1,3.355484083E-2,2.015953511E-1
1.165968954E1,-3.772256374E-1,-1.358172148E-1,2.921401560E-1
1.166962792E1,-4.635095298E-1,-1.603175700E-1,3.624455333E-1
1.167956631E1,-5.700328350E-1,-1.757634431E-2,4.082505703E-1
1.168947844E1,-6.243597269E-1,2.934716940E-1,4.541887343E-1
1.169941688E1,-6.424686909E-1,6.034545302E-1,4.872109592E-1
1.170935532E1,-7.884055972E-1,7.877398133E-1,4.328840673E-1
1.171929386E1,-1.094127417E0,8.868064880E-1,2.324871123E-1
1.172923230E1,-1.443523884E0,7.430000305E-1,6.524552405E-2
1.173917074E1,-1.595852256E0,-7.989247330E-3,4.158403277E-1
1.174910797E1,-1.322087288E0,-7.973269224E-1,1.348984480E0
1.175904636E1,-8.395367861E-1,-1.397053123E0,1.899709940E0
1.176898475E1,-4.368786812E-1,-1.578142762E0,1.565226793E0
1.177894454E1,-2.037258074E-2,-8.431319594E-1,9.356740713E-1
1.178888292E1,3.993292153E-1,3.563204408E-1,5.500596762E-1
1.179882131E1,8.371400237E-1,6.375419497E-1,3.560541272E-1
1.180876600E1,1.031012416E0,2.359491140E-1,3.123795986E-1
1.181870443E1,9.330109954E-1,1.560566425E-1,1.035939083E-1
1.182864282E1,7.593780160E-1,1.368824393E-1,-3.256950080E-1
1.183856928E1,6.251586080E-1,3.675054014E-2,-5.962641835E-1
1.184850766E1,6.070496440E-1,5.805519968E-2,-6.761566401E-1
1.185844610E1,6.081148982E-1,2.487319112E-1,-6.623086333E-1
1.186838542E1,5.282224417E-1,4.671046734E-1,-6.133078933E-1
1.187832381E1,4.174381793E-1,5.310186744E-1,-5.387415886E-1
1.188826224E1,3.279586136E-1,5.097140074E-1,-4.290226102E-1
1.189819469E1,2.299571782E-1,3.914731443E-1,-3.491301239E-1
1.190813308E1,1.340862066E-1,2.135792226E-1,-2.937380075E-1
1.191807146E1,6.378082931E-2,7.296846062E-2,-2.479329854E-1
1.192799964E1,4.354140162E-2,-4.420717061E-2,-2.159759998E-1
1.193793803E1,8.828118443E-2,-1.336867511E-1,-2.053236663E-1
1.194787641E1,1.734998226E-1,-1.613828093E-1,-2.340849638E-1
1.195783792E1,2.587184608E-1,-1.901440918E-1,-2.841508985E-1
1.196777631E1,3.364804685E-1,-2.221010923E-1,-3.065207899E-1
1.197771474E1,4.238295853E-1,-2.029268891E-1,-2.745638192E-1
1.198761370E1,4.973306656E-1,-1.432738453E-1,-1.978670359E-1
1.199755214E1,4.983958900E-1,-5.166380107E-2,-1.169093251E-1
1.200749053E1,4.366123974E-1,5.326165119E-4,-6.790860742E-2
1.201744339E1,3.460675776E-1,1.011971384E-2,-5.299534276E-2
1.202738178E1,2.054568231E-1,8.788172156E-2,-7.536523789E-2
1.203732016E1,1.158440951E-2,2.093182951E-1,-1.360835135E-1
1.204724891E1,-1.801575422E-1,3.201025128E-1,-1.616491079E-1
1.205718735E1,-3.154421151E-1,4.404738545E-1,-1.211702600E-1
1.206712574E1,-3.921388984E-1,5.661713481E-1,-6.258244067E-2
1.207709136E1,-4.198349714E-1,5.629756451E-1,6.657706574E-3
1.208702974E1,-4.017260075E-1,4.138430357E-1,8.441971987E-2
1.209696818E1,-3.623123765E-1,2.380795777E-1,1.408770680E-1
1.210689225E1,-3.399424851E-1,1.272953451E-1,1.536598653E-1
1.211683063E1,-3.569862247E-1,4.207670316E-2,1.035939083E-1
1.212676902E1,-4.198349714E-1,-2.716344222E-2,-1.464695390E-2
1.213669693E1,-5.561847687E-1,-7.616416365E-2,-1.669752747E-1
1.214663532E1,-8.118407130E-1,-3.584509194E-1,-2.852161527E-1
1.215657370E1,-1.188933253E0,-8.580452204E-1,-2.266283184E-1
1.216653100E1,-1.416893125E0,-1.046591401E0,2.175738513E-1
1.217646933E1,-1.224085927E0,-8.186315894E-1,7.705629468E-1
1.218640777E1,-8.565804958E-1,-5.672366023E-1,1.064567208E0
1.219634709E1,-6.659038067E-1,-2.998631001E-1,1.000653267E0
1.220628547E1,-7.362091541E-1,2.487319112E-1,7.481930256E-1
1.221622386E1,-6.797518134E-1,7.941312194E-1,7.279536128E-1
1.222613855E1,-1.503310055E-1,6.023892760E-1,8.717600703E-1
1.223607688E1,3.950682878E-1,1.400781423E-1,8.504554033E-1
1.224601532E1,6.475285292E-1,2.327534109E-1,4.797543287E-1
1.225596511E1,8.435314298E-1,4.905398190E-1,-1.936061084E-1
1.226590344E1,1.017164350E0,3.808208108E-1,-8.625724316E-1
1.227584183E1,1.130079031E0,1.837527007E-1,-1.320622683E0
1.228575865E1,1.217428207E0,1.709699035E-1,-1.514495015E0
1.229569709E1,1.291994452E0,2.785584331E-1,-1.449515820E0
1.230563542E1,1.282407403E0,3.744294047E-1,-1.221555948E0
1.231560667E1,1.160970807E0,4.340824485E-1,-9.989222884E-1
1.232554506E1,9.958597422E-1,4.468652606E-1,-8.061150908E-1
1.233548344E1,8.904016614E-1,3.840165138E-1,-5.728290677E-1
1.234538907E1,8.296833634E-1,3.744294047E-1,-3.683043122E-1
1.235532745E1,7.338123918E-1,3.541899920E-1,-2.170412242E-1
1.236526584E1,6.017234921E-1,2.497971505E-1,-7.110430300E-2
1.237521896E1,4.824174047E-1,1.262301207E-1,7.057169080E-2
1.238515730E1,3.897421360E-1,-1.118494663E-2,1.781602204E-1
1.239509574E1,2.991973162E-1,-1.709699035E-1,2.410089672E-1
1.240505542E1,2.065220475E-1,-3.414071798E-1,2.697702646E-1
1.241499381E1,1.095858440E-1,-4.905398190E-1,3.017272651E-1
1.242493219E1,7.323476952E-3,-6.077154279E-1,3.762935698E-1
1.243486313E1,-8.535179496E-2,-6.524552107E-1,4.307536185E-1
1.244480152E1,-1.716356725E-1,-6.002588272E-1,4.435364008E-1
1.245473990E1,-2.738980353E-1,-4.500609636E-1,4.264926612E-1
1.246467834E1,-3.793561161E-1,-2.870802879E-1,3.187709749E-1
1.247461672E1,-4.667052329E-1,-2.487319112E-1,1.888125539E-1
1.248455511E1,-5.284887552E-1,-2.444709837E-1,1.483336985E-1
1.249446157E1,-5.529890656E-1,-1.336867511E-1,1.280942708E-1
1.250439995E1,-5.380758047E-1,5.698996782E-2,1.089200750E-1
1.251433834E1,-5.018579364E-1,2.306229472E-1,1.003982127E-1
1.252428646E1,-4.592485726E-1,2.764279842E-1,8.974587917E-2
1.253422485E1,-3.942693770E-1,2.082530558E-1,8.761541545E-2
1.254416324E1,-2.973331809E-1,2.636451721E-1,8.868064731E-2
1.255411860E1,-2.323539555E-1,3.818860352E-1,4.820179567E-2
1.256405698E1,-3.388772607E-1,3.850817382E-1,-7.323476672E-2
1.257399537E1,-6.222292185E-1,8.468602598E-2,-1.840189993E-1
1.258394297E1,-9.897346497E-1,-5.043878555E-1,-8.175663650E-2
1.259388136E1,-1.295456529E0,-8.878717422E-1,2.655093372E-1
1.260381975E1,-1.322087288E0,-7.781527042E-1,6.885399818E-1
1.261373360E1,-1.214498758E0,-3.829512596E-1,8.749557734E-1
1.262367199E1,-1.321022153E0,1.011971384E-2,6.757571697E-1
1.263361037E1,-1.596917510E0,-2.077204362E-2,4.029243886E-1
1.264356224E1,-1.665092349E0,-3.435376585E-1,3.304885328E-1
1.265350063E1,-1.356174827E0,-3.616466224E-1,3.997286856E-1
1.266343907E1,-8.203625679E-1,-3.967992961E-1,2.953358591E-1
1.267335412E1,-2.898765504E-1,-3.094501793E-1,-3.701684624E-2
1.268329256E1,1.734998226E-1,-2.716344222E-2,-4.897408783E-1
1.269323094E1,5.868102312E-1,6.924014539E-3,-9.467258453E-1
1.270319089E1,9.596418142E-1,-1.187734827E-1,-1.187468529E0
1.271312928E1,1.215297699E0,-1.145125479E-1,-1.159772396E0
1.272306766E1,1.281342149E0,-3.781577200E-2,-9.797480702E-1
1.273300516E1,1.278146505E0,-5.326165119E-4,-6.985265613E-1
1.274294360E1,1.279211760E0,1.347519755E-1,-3.469996452E-1
1.275288198E1,1.254711390E0,3.051892519E-1,-1.296921223E-1
1.276282157E1,1.209971547E0,3.989297748E-1,-5.299534276E-2
1.277275995E1,1.133274794E0,5.576494932E-1,-1.677742042E-2
1.278269839E1,1.007577300E0,7.291520238E-1,-3.701684624E-2
1.279261740E1,8.371400237E-1,7.483261824E-1,-9.880036116E-2
1.280255579E1,6.752246022E-1,6.343462467E-1,-1.499315500E-1
1.281249417E1,5.516575575E-1,5.011921525E-1,-1.882799417E-1
1.282244422E1,4.632432163E-1,3.669727743E-1,-2.063889056E-1
1.283238261E1,3.982639909E-1,2.135792226E-1,-1.904104054E-1
1.284232105E1,3.386109471E-1,3.568530455E-2,-1.605838835E-1
1.285223881E1,2.651098669E-1,-1.773612946E-1,-1.509967744E-1
1.286217719E1,1.564560980E-1,-3.595161438E-1,-1.403444558E-1
1.287211563E1,1.371487509E-2,-4.372781515E-1,-1.009308323E-1
1.288204438E1,-1.482005417E-1,-3.989297748E-1,-5.725627393E-2
1.289198282E1,-2.877460718E-1,-3.307548463E-1,-4.447348043E-2
1.290192126E1,-3.942693770E-1,-3.541899920E-1,-3.275591508E-2
1.291186631E1,-4.933360517E-1,-4.734960794E-1,1.331541222E-3
1.292180475E1,-5.796199441E-1,-5.810846090E-1,4.713656008E-2
1.293174313E1,-6.147726178E-1,-5.640408993E-1,9.294158220E-2
1.294169902E1,-5.583152771E-1,-4.063864052E-1,1.398118287E-1
1.295163740E1,-4.549876451E-1,-2.306229472E-1,1.834863871E-1
1.296157579E1,-3.410077095E-1,-1.102516204E-1,1.962691844E-1
1.297152308E1,-1.609833390E-1,1.070559174E-1,1.813559234E-1
1.298146152E1,6.058513001E-2,4.585828185E-1,1.376813650E-1
1.299139990E1,1.426080763E-1,6.865426898E-1,6.950645149E-2
1.300130730E1,-4.380770773E-2,7.451304793E-1,-5.512581021E-2
1.301124574E1,-3.452686667E-1,5.821498632E-1,-2.053236663E-1
1.302118417E1,-7.244915962E-1,-1.315562725E-1,-1.563229412E-1
1.303112495E1,-9.662995338E-1,-7.579132915E-1,2.282261699E-1
1.304106339E1,-8.533847928E-1,-3.605813682E-1,7.993242145E-1
1.305100183E1,-7.244915962E-1,1.997311860E-1,8.930647373E-1
1.306093537E1,-6.595124006E-1,5.059856921E-2,3.837502003E-1
1.307087381E1,-4.059869349E-1,-1.006645188E-1,1.664426625E-1
1.308081219E1,-1.652442664E-1,1.539261788E-1,3.720326424E-1
1.309075141E1,2.649767138E-2,1.752308309E-1,5.212984085E-1
1.310068985E1,1.830869317E-1,-2.093182951E-1,5.021241903E-1
1.311062829E1,2.565880120E-1,-3.925383687E-1,3.347494900E-1
1.312055829E1,3.961335421E-1,-3.850817382E-1,-5.059856921E-3
1.313049672E1,5.601794124E-1,-4.585828185E-1,-4.460663199E-1
1.314043516E1,6.102453470E-1,-5.533885360E-1,-8.103760481E-1
1.315037521E1,5.484618545E-1,-5.320838690E-1,-9.829437733E-1
1.316031344E1,4.174381793E-1,-3.424724042E-1,-9.882699251E-1
1.317025167E1,2.885449827E-1,-1.006645188E-1,-8.647028804E-1
1.318021652E1,2.193048447E-1,5.592473224E-2,-6.399387121E-1
1.319015475E1,2.107829899E-1,1.283605844E-1,-3.928046823E-1
1.320009292E1,2.363485843E-1,1.880136281E-1,-1.872147024E-1
1.321003574E1,2.704360485E-1,2.956021726E-1,-5.938674137E-2
1.321997396E1,3.023930192E-1,3.573856652E-1,3.435376659E-2
1.322991219E1,3.268933892E-1,3.094501793E-1,1.142462417E-1
1.323983115E1,3.290238380E-1,1.635132730E-1,1.707035899E-1
1.324976938E1,3.279586136E-1,-2.663082443E-3,2.122476846E-1
1.325970766E1,3.311543167E-1,-1.315562725E-1,2.388785034E-1
1.326964792E1,3.290238380E-1,-2.050573528E-1,2.559222281E-1
1.327958615E1,3.173062801E-1,-2.146444470E-1,2.814878225E-1
1.328952438E1,3.098496497E-1,-1.880136281E-1,3.070534170E-1
1.329946172E1,3.119801283E-1,-1.198387146E-1,3.070534170E-1
1.330939990E1,2.928059399E-1,-3.248960897E-2,2.729659677E-1
1.331933818E1,2.107829899E-1,1.331541315E-2,2.154433727E-1
1.332926980E1,7.336792350E-2,3.781577200E-2,1.536598653E-1
1.333920808E1,-8.748225868E-2,7.509893179E-2,1.248985752E-1
1.334914626E1,-2.376801223E-1,1.272953451E-1,1.493989378E-1
1.335908141E1,-3.228987455E-1,2.221010923E-1,1.952039450E-1
1.336901959E1,-3.324858546E-1,3.477985859E-1,2.303566486E-1
1.337895787E1,-3.143768907E-1,3.914731443E-1,2.495308369E-1
1.338890896E1,-3.399424851E-1,3.872122169E-1,2.548570037E-1
1.339884714E1,-3.995955288E-1,5.118444562E-1,2.463351339E-1
1.340878537E1,-5.029231310E-1,7.898702621E-1,2.047910541E-1
1.341871224E1,-7.351439595E-1,9.773513079E-1,1.057243794E-1
1.342865042E1,-9.535167217E-1,5.320838690E-1,2.370143496E-2
1.343858870E1,-1.047257185E0,-3.456681073E-1,1.344856620E-1
1.344854610E1,-1.254977703E0,-1.070026517E0,4.691019952E-1
1.345848433E1,-1.485067964E0,-9.347419739E-1,8.248898387E-1
1.346842256E1,-1.439262986E0,-2.860150635E-1,8.813471794E-1
1.347835126E1,-1.312500238E0,-8.255556226E-2,5.074504018E-1
1.348828949E1,-1.090931773E0,-1.901440918E-1,-1.339530498E-1
1.349822771E1,-6.776213646E-1,-2.966673970E-1,-5.600462556E-1
1.350815813E1,-3.900084496E-1,-1.848179251E-1,-5.920032263E-1
1.351809636E1,-1.354177445E-1,-1.283605844E-1,-5.600462556E-1
1.352803459E1,1.585865617E-1,-4.212996662E-1,-4.695014656E-1
1.353797943E1,2.981320918E-1,-6.567161679E-1,-2.383458912E-1
1.354791761E1,4.547213614E-1,-3.701684773E-1,-1.456706226E-1
1.355785584E1,7.934654355E-1,1.198387146E-1,-2.639114857E-1
1.356780422E1,1.029947162E0,3.232982159E-1,-3.885437548E-1
1.357774245E1,1.038469076E0,3.222329915E-1,-4.716319144E-1
1.358768068E1,9.969249368E-1,3.712337017E-1,-4.865451753E-1
1.359758922E1,9.234238863E-1,3.840165138E-1,-4.354139864E-1
1.360752745E1,7.838783264E-1,3.328853250E-1,-3.704347908E-1
1.361746568E1,6.390066743E-1,3.094501793E-1,-3.086512685E-1
1.362740553E1,5.346138477E-1,3.030588031E-1,-2.511286736E-1
1.363734376E1,4.706998467E-1,2.711018026E-1,-2.106498331E-1
1.364728199E1,4.259600639E-1,2.029268891E-1,-1.850842386E-1
1.365724381E1,3.833507299E-1,9.320788831E-2,-1.627143472E-1
1.366718209E1,3.471328020E-1,-4.846810177E-2,-1.424749196E-1
1.367712037E1,3.396761715E-1,-1.762960702E-1,-1.211702600E-1
1.368706079E1,3.748288751E-1,-2.870802879E-1,-1.147788614E-1
1.369699912E1,4.099815488E-1,-3.840165138E-1,-1.201050207E-1
1.370693740E1,3.961335421E-1,-4.532566369E-1,-1.062569916E-1
1.371687803E1,3.300890923E-1,-4.426043332E-1,-3.914731368E-2
1.372681631E1,2.438052148E-1,-3.328853250E-1,3.754946589E-2
1.373675464E1,1.884130985E-1,-2.732322812E-1,6.418029219E-2
1.374669464E1,1.639127284E-1,-3.275591433E-1,6.844121963E-2
1.375663292E1,1.191729456E-1,-3.925383687E-1,7.057169080E-2
1.376657126E1,5.951989442E-2,-3.371462524E-1,4.713656008E-2
1.377651662E1,1.264964230E-2,-1.379476786E-1,4.074516147E-2
1.378645495E1,-8.655018173E-3,1.059906855E-1,5.778888986E-2
1.379639329E1,1.997311832E-3,2.625799477E-1,7.270215452E-2
1.380629766E1,1.051917579E-2,2.657756507E-1,9.294158220E-2
1.381623600E1,9.320789250E-4,1.411433816E-1,9.294158220E-2
1.382617433E1,-2.889444493E-2,-6.018566713E-2,4.713656008E-2
1.383613074E1,-7.896039635E-2,-2.061225921E-1,-1.784265228E-2
1.384606907E1,-1.290263534E-1,-2.039921284E-1,-9.134373069E-2
1.385600735E1,-1.993317306E-1,-1.581871063E-1,-1.776276082E-1
1.386592089E1,-4.134435654E-1,-1.496652365E-1,-2.873466015E-1
1.387585922E1,-7.766880393E-1,-1.517957002E-1,-4.386096895E-1
1.388579751E1,-1.136736751E0,-1.944050342E-1,-5.643072128E-1
1.389576324E1,-1.349783421E0,-4.244953692E-1,-4.535229504E-1
1.390570152E1,-1.362566233E0,-6.918688416E-1,9.507204592E-2
1.391563980E1,-1.191063643E0,-8.122401834E-1,6.224955320E-1
1.392555402E1,-1.054713845E0,-7.493914366E-1,5.990604162E-1
1.393549230E1,-8.533847928E-1,-5.565842390E-1,3.113143444E-1
1.394543063E1,-4.123783410E-1,-1.720351279E-1,2.974663079E-1
1.395536058E1,-5.126433820E-2,2.157096863E-1,6.800181270E-1
1.396529891E1,2.523270845E-1,-3.781577200E-2,8.461945057E-1
1.397523724E1,4.781564772E-1,-2.497971505E-1,6.139736772E-1
1.398521855E1,6.326152682E-1,-2.929390781E-2,3.688369393E-1
1.399515688E1,8.690969944E-1,-1.970681176E-2,5.246272683E-2
1.400509516E1,1.084274054E0,-1.358172148E-1,-2.937380075E-1
1.401500433E1,1.165231824E0,-1.603175700E-1,-5.515244007E-1
1.402494261E1,1.111970067E0,-5.698996782E-2,-6.548519731E-1
1.403488089E1,9.766855240E-1,1.347519755E-1,-6.079817414E-1
1.404480714E1,7.977263927E-1,3.637770712E-1,-4.971975088E-1
1.405474547E1,6.358109713E-1,5.885412693E-1,-3.906742036E-1
1.406468376E1,5.378095508E-1,7.035863996E-1,-2.788247466E-1
1.407462360E1,4.877435565E-1,6.726946831E-1,-1.712362021E-1
1.408456188E1,4.536561072E-1,5.246272683E-1,-7.749570161E-2
1.409450021E1,4.025249183E-1,2.977326214E-1,6.657706574E-3
1.410443631E1,3.450023532E-1,6.657706201E-2,6.844121963E-2
1.411437464E1,3.109148741E-1,-1.123820841E-1,1.142462417E-1
1.412431292E1,2.938711643E-1,-2.082530558E-1,1.270290315E-1
1.413426844E1,2.821536064E-1,-1.997311860E-1,9.507204592E-2
1.414420672E1,2.704360485E-1,-1.027949899E-1,6.631075591E-2
1.415414501E1,2.565880120E-1,2.822867595E-2,8.548495173E-2
1.416407641E1,2.587184608E-1,1.283605844E-1,8.655018359E-2
1.417401464E1,2.736317217E-1,1.464695334E-1,4.820179567E-2
1.418395282E1,2.651098669E-1,7.935985923E-2,-1.038602181E-2
1.419390912E1,1.852173954E-1,5.326165119E-4,-9.347419441E-2
1.420384735E1,3.608476743E-2,-7.403369248E-2,-1.584534049E-1
1.421378553E1,-1.162435561E-1,-1.390129030E-1,-1.669752747E-1
1.422372501E1,-2.600499988E-1,-1.688394397E-1,-1.488663107E-1
1.423366324E1,-3.963998258E-1,-1.517957002E-1,-1.094526947E-1
1.424360141E1,-5.348801613E-1,-1.379476786E-1,-2.423405088E-2
1.425352813E1,-6.595124006E-1,-1.858831644E-1,7.057169080E-2
1.426346636E1,-7.340787053E-1,-2.263620198E-1,1.504641622E-1
1.427340454E1,-7.383396626E-1,-2.274272442E-1,2.260957062E-1
1.428332027E1,-6.445991397E-1,-2.199706137E-1,2.974663079E-1
1.429325850E1,-5.423367620E-1,-1.411433816E-1,3.539236784E-1
1.430319672E1,-6.051855087E-1,4.420717061E-2,3.656412363E-1
1.431316329E1,-8.182321191E-1,1.496652365E-1,2.878792286E-1
1.432310152E1,-1.115432143E0,-2.157096863E-1,1.557903290E-1
1.433303969E1,-1.261369109E0,-8.431319594E-1,1.877473146E-1
1.434295277E1,-9.961260557E-1,-9.358072281E-1,7.055837512E-1
1.435289100E1,-6.009245515E-1,-7.312824726E-1,1.090132833E0
1.436282922E1,-4.507267177E-1,-7.856093645E-1,5.191679597E-1
1.437278620E1,-3.782908916E-1,-4.010602236E-1,-2.489982247E-1
1.438272443E1,-1.354177445E-1,2.636451721E-1,-5.270240307E-1
1.439266266E1,2.193048447E-1,4.937354922E-1,-5.142412186E-1
1.440257542E1,3.908073604E-1,4.266258180E-1,-4.801537991E-1
1.441251365E1,5.473966002E-1,2.934716940E-1,-5.685681105E-1
1.442245188E1,9.074453712E-1,1.027949899E-1,-7.507229447E-1
1.443240938E1,1.212102056E0,-2.822867595E-2,-8.178326488E-1
1.444234761E1,1.267494202E0,5.858781748E-3,-7.272878289E-1
1.445228579E1,1.169492722E0,1.177082509E-1,-5.983946323E-1
1.446221459E1,1.024621010E0,1.592523307E-1,-4.588491321E-1
1.447215282E1,8.754884005E-1,9.320788831E-2,-3.107817471E-1
1.448209105E1,7.338123918E-1,-3.142437339E-2,-1.754971445E-1
1.449203074E1,6.070496440E-1,-1.603175700E-1,-6.151720881E-2
1.450196896E1,4.962654412E-1,-2.306229472E-1,2.396774245E-3
1.451190714E1,3.854812086E-1,-2.306229472E-1,7.722939365E-3
1.452185547E1,2.736317217E-1,-2.210358530E-1,-1.571218669E-2
1.453179365E1,1.649779677E-1,-1.997311860E-1,-5.406057462E-2
1.454173188E1,3.075860441E-2,-1.603175700E-1,-1.041265279E-1
1.455164199E1,-1.439396143E-1,-1.209039465E-1,-1.137136221E-1
1.456158021E1,-3.442034125E-1,2.663082443E-3,-8.255556226E-3
1.457151844E1,-5.050535798E-1,1.944050342E-1,9.826774895E-2
1.458147350E1,-6.222292185E-1,3.435376585E-1,1.664426625E-1
1.459141167E1,-7.127740383E-1,3.722989559E-1,2.591179311E-1
1.460134990E1,-6.808170676E-1,1.933397949E-1,3.379451632E-1
1.461127688E1,-4.975969791E-1,-1.869483888E-1,3.283580840E-1
1.462121516E1,-3.218335211E-1,-4.308867455E-1,3.177057505E-1
1.463115334E1,-2.014621943E-1,-4.489957094E-1,3.102491200E-1
1.464109501E1,-9.813459218E-2,-3.467333615E-1,2.569874525E-1
1.465103318E1,-2.889444493E-2,-1.592523307E-1,1.792254597E-1
1.466097141E1,-1.717688330E-2,9.533835202E-2,9.507204592E-2
1.467093829E1,-2.569874749E-2,3.456681073E-1,3.648423031E-2
1.468087657E1,-2.569874749E-2,4.479304850E-1,2.663082560E-4
1.469081480E1,-1.611164957E-2,4.489957094E-1,-9.320789017E-3
1.470074568E1,-1.198387123E-3,4.649742246E-1,-1.864157850E-3
1.471068391E1,-3.315537795E-2,3.733641803E-1,1.331541222E-3
1.472062219E1,-2.174406946E-1,1.219691783E-1,-1.145125460E-2
1.473056178E1,-5.732285380E-1,-2.540580630E-1,3.861469775E-2
1.474050006E1,-1.017430663E0,-8.069140315E-1,2.655093372E-1
1.475043829E1,-1.248586297E0,-1.244724751E0,7.023880482E-1
1.476036120E1,-1.063235760E0,-9.805470109E-1,1.063502073E0
1.477029943E1,-9.087769389E-1,-2.902759910E-1,8.706948161E-1
1.478023771E1,-1.084540367E0,7.616416365E-2,3.912068307E-1
1.479021506E1,-1.211303115E0,-3.035914153E-2,4.713656008E-2
1.480015334E1,-1.065366149E0,3.035914153E-2,8.974587917E-2
1.481009162E1,-7.117088437E-1,3.712337017E-1,4.563191831E-1
1.481998761E1,-3.218335211E-1,3.435376585E-1,5.202331543E-1
1.482992584E1,-3.528584540E-2,4.671046734E-1,1.696383655E-1
1.483986412E1,3.695026934E-1,8.047835231E-1,-2.372806519E-1
1.484981704E1,8.382052183E-1,6.354115009E-1,-5.962641835E-1
1.485975532E1,1.121557236E0,1.752308309E-1,-7.997236848E-1
1.486969355E1,1.122622490E0,8.042509109E-2,-8.433982730E-1
1.487963558E1,1.075752258E0,4.223648906E-1,-7.667014599E-1
1.488957386E1,1.110904932E0,6.961297989E-1,-5.611115098E-1
1.489951214E1,1.109839678E0,6.673684716E-1,-3.938699067E-1
1.490942532E1,1.053382277E0,5.768237114E-1,-3.129121959E-1
1.491936355E1,9.756202698E-1,5.161054134E-1,-2.607157826E-1
1.492930183E1,8.744231462E-1,4.362129271E-1,-2.436720580E-1
1.493926329E1,7.615084648E-1,3.328853250E-1,-2.394111156E-1
1.494920152E1,6.581808329E-1,2.657756507E-1,-2.106498331E-1
1.495913980E1,5.431357026E-1,2.359491140E-1,-1.786928326E-1
1.496908475E1,4.142425060E-1,2.061225921E-1,-1.552577168E-1
1.497902308E1,2.970668674E-1,1.688394397E-1,-1.360835135E-1
1.498896131E1,1.948044896E-1,1.219691783E-1,-1.179745570E-1
1.499887297E1,1.042596847E-1,5.912043154E-2,-8.921326697E-2
1.500881126E1,1.478010789E-2,-2.663082443E-3,-5.086487532E-2
1.501874948E1,-7.576470077E-2,-3.462007269E-2,-2.423405088E-2
1.502868256E1,-1.695052087E-1,-2.396774292E-2,-2.210358530E-2
1.503862084E1,-2.621804774E-1,6.924014539E-3,-4.021254554E-2
1.504855907E1,-3.473991156E-1,-2.396774292E-2,-4.553871229E-2
1.505852912E1,-4.230306745E-1,-1.123820841E-1,-2.316881903E-2
1.506846745E1,-4.869446456E-1,-1.912093312E-1,2.476666868E-2
1.507840568E1,-5.125102401E-1,-2.125139832E-1,9.081111848E-2
1.508832146E1,-5.157059431E-1,-2.114487588E-1,1.547250897E-1
1.509825969E1,-5.220973492E-1,-2.050573528E-1,2.079867423E-1
1.510819797E1,-4.837489426E-1,-1.187734827E-1,2.580527067E-1
1.511814902E1,-3.878779709E-1,2.396774292E-2,2.900096774E-1
1.512808730E1,-2.973331809E-1,1.858831644E-1,2.932053804E-1
1.513802558E1,-3.101159632E-1,3.328853250E-1,2.239652425E-1
1.514793933E1,-4.464657903E-1,3.648423254E-1,2.583190054E-2
1.515787761E1,-8.001231551E-1,6.924014539E-3,-2.372806519E-1
1.516781589E1,-1.188933253E0,-5.757584572E-1,-2.181064636E-1
1.517776167E1,-1.209172606E0,-6.204982400E-1,3.358147144E-1
1.518769980E1,-9.865389466E-1,-5.065183043E-1,6.619091630E-1
1.519763797E1,-9.844084978E-1,-3.861469626E-1,3.454017937E-1
1.520755876E1,-1.056844354E0,-1.006645188E-1,-5.086487532E-2
1.521749693E1,-8.608414531E-1,-4.846810177E-2,-8.069140464E-2
1.522743511E1,-5.902722478E-1,1.011971384E-2,2.047910541E-1
1.523740193E1,-2.355496585E-1,-1.177082509E-1,3.209014535E-1
1.524734006E1,1.543256342E-1,-2.327534109E-1,1.493989378E-1
1.525727824E1,5.047873259E-1,-1.038602218E-1,-1.882799417E-1
1.526723204E1,8.254224658E-1,-3.462007269E-2,-5.706986189E-1
1.527717016E1,1.101317763E0,-1.528609395E-1,-8.785509467E-1
1.528710834E1,1.240863323E0,-2.178401500E-1,-9.861394763E-1
1.529702855E1,1.231276274E0,-1.198387146E-1,-8.732247949E-1
1.530696667E1,1.219558716E0,-5.166380107E-2,-6.165035963E-1
1.531690485E1,1.199319243E0,-5.912043154E-2,-3.928046823E-1
1.532684813E1,1.114100575E0,5.326165119E-4,-3.022598624E-1
1.533678626E1,1.033142924E0,1.709699035E-1,-2.436720580E-1
1.534672443E1,9.670984149E-1,3.669727743E-1,-1.904104054E-1
1.535663027E1,8.861407042E-1,5.001268983E-1,-1.424749196E-1
1.536656844E1,8.009220958E-1,5.278229713E-1,-8.388710022E-2
1.537650662E1,7.316819429E-1,4.426043332E-1,-1.677742042E-2
1.538644511E1,6.709636450E-1,2.860150635E-1,3.328853101E-2
1.539638329E1,6.017234921E-1,1.240996495E-1,4.287562892E-2
1.540632146E1,4.941349626E-1,-1.970681176E-2,9.853405878E-3
1.541630131E1,3.663070202E-1,-1.177082509E-1,5.592473317E-3
1.542623943E1,2.363485843E-1,-1.358172148E-1,6.950645149E-2
1.543617761E1,1.340862066E-1,-6.551183015E-2,1.334204376E-1
1.544610485E1,5.312849581E-2,1.507304758E-1,1.770949960E-1
1.545604303E1,-6.724283099E-2,3.786903322E-1,1.909430176E-1
1.546598115E1,-2.419410497E-1,4.244953692E-1,1.866820902E-1
1.547588485E1,-3.921388984E-1,2.146444470E-1,2.026605755E-1
1.548582303E1,-4.613790512E-1,-1.017297506E-1,2.452699095E-1
1.549576120E1,-4.997274280E-1,-3.051892519E-1,3.123795986E-1
1.550570766E1,-5.167711973E-1,-3.946688473E-1,4.007939398E-1
1.551564584E1,-4.975969791E-1,-4.479304850E-1,4.808195531E-1
1.552558402E1,-4.720313847E-1,-4.639089704E-1,5.223636627E-1
1.553552225E1,-4.688356817E-1,-3.488638103E-1,5.117112994E-1
1.554546042E1,-4.699009061E-1,-1.049254537E-1,4.382102489E-1
1.555539860E1,-4.336830080E-1,1.709699035E-1,3.155752718E-1
1.556533568E1,-3.825518191E-1,4.287562966E-1,1.419423074E-1
1.557527386E1,-4.549876451E-1,4.532566369E-1,-9.347419441E-2
1.558521204E1,-7.958621979E-1,1.438064594E-2,-3.054555655E-1
1.559518850E1,-1.039800644E0,-6.737598777E-1,-1.222354919E-1
1.560512662E1,-9.098421335E-1,-1.108374953E0,5.969299674E-1
1.561506480E1,-5.849460959E-1,-1.199985027E0,9.164998531E-1
1.562497214E1,-4.539224207E-1,-8.846760392E-1,6.406044960E-1
1.563491032E1,-5.199668407E-1,-9.320788831E-2,5.063851476E-1
1.564484850E1,-4.251611233E-1,3.573856652E-1,5.138418078E-1
1.565478402E1,-1.577876359E-1,2.274272442E-1,5.383421183E-1
1.566472214E1,1.383471340E-1,-1.011971384E-2,3.730978668E-1
1.567466032E1,3.631113172E-1,-3.035914153E-2,-6.151720881E-2
1.568462089E1,5.612446666E-1,6.657706201E-2,-5.110455155E-1
1.569455912E1,7.295514941E-1,-5.485950038E-2,-8.710942864E-1
1.570449730E1,8.318138123E-1,-2.284924835E-1,-1.073488593E0
1.571440683E1,8.254224658E-1,-2.497971505E-1,-1.116097927E0
1.572434506E1,7.497909069E-1,-1.283605844E-1,-1.006378889E0
1.573428329E1,7.210295796E-1,6.125089899E-2,-7.560491562E-1
1.574422782E1,7.018554211E-1,2.061225921E-1,-4.971975088E-1
1.575416600E1,6.400718689E-1,2.412752807E-1,-2.948032320E-1
1.576410422E1,5.900059342E-1,1.901440918E-1,-1.030612960E-1
1.577403803E1,5.463314056E-1,1.209039465E-1,4.713656008E-2
1.578397620E1,4.717650712E-1,8.468602598E-2,1.185071766E-1
1.579391443E1,3.758940995E-1,8.575125784E-2,1.472684592E-1
1.580388516E1,2.757622004E-1,9.427312016E-2,1.483336985E-1
1.581382334E1,1.766955256E-1,8.468602598E-2,1.227681041E-1
1.582376157E1,6.165036187E-2,3.994623944E-2,7.909355313E-2
1.583368360E1,-8.109086752E-2,-2.609820850E-2,5.246272683E-2
1.584362178E1,-2.280930281E-1,-7.935985923E-2,5.246272683E-2
1.585356001E1,-3.527252972E-1,-1.123820841E-1,3.115806542E-2
1.586347730E1,-4.347482324E-1,-1.475347728E-1,1.517957076E-2
1.587341553E1,-4.454005659E-1,-2.295577228E-1,1.517957076E-2
1.588335376E1,-4.155740440E-1,-3.339505494E-1,4.607132822E-2
1.589331652E1,-3.846822679E-1,-3.648423254E-1,1.067896113E-1
1.590325475E1,-3.559209704E-1,-2.679060996E-1,1.781602204E-1
1.591319292E1,-3.090507388E-1,-1.070559174E-1,2.452699095E-1
1.592311271E1,-2.557890713E-1,-5.326165119E-4,2.974663079E-1
1.593305089E1,-2.366148829E-1,5.485950038E-2,3.166405261E-1
1.594298912E1,-2.142449915E-1,7.296846062E-2,2.964010835E-1
1.595295240E1,-1.695052087E-1,8.468602598E-2,2.442046702E-1
1.596289058E1,-1.727008969E-1,2.029268891E-1,1.483336985E-1
1.597282881E1,-2.696371078E-1,4.074516296E-1,6.204982474E-2
1.598274844E1,-4.677704573E-1,5.746932030E-1,-7.989247679E-4
1.599268662E1,-7.671009302E-1,5.619103909E-1,-7.216953486E-2
1.600262485E1,-1.097323179E0,2.316881865E-1,-1.723014414E-1
1.601258074E1,-1.300782681E0,-4.207670316E-2,-1.371487528E-1
1.602251891E1,-1.391327500E0,-1.225017942E-2,4.158403277E-1
1.603245719E1,-1.359370470E0,-1.225017942E-2,9.473916292E-1
1.604238542E1,-1.275217056E0,-1.592523307E-1,7.822805047E-1
1.605232360E1,-1.199585557E0,-3.967992961E-1,3.272928596E-1
1.606226178E1,-6.978607774E-1,-3.232982159E-1,2.154433727E-1
1.607218964E1,4.354140162E-2,-1.315562725E-1,3.688369393E-1
1.608212782E1,5.484618545E-1,-2.306229472E-1,3.720326424E-1
1.609206605E1,7.721607685E-1,-6.311505437E-1,2.143781483E-1
1.610200141E1,9.234238863E-1,-8.292838931E-1,1.291595101E-1
1.611193959E1,1.142861843E0,-6.716294289E-1,9.933298081E-2
1.612187782E1,1.376147866E0,-4.138430357E-1,7.722939365E-3
1.613182657E1,1.489062667E0,-1.688394397E-1,-9.347419441E-2
1.614176480E1,1.456040382E0,2.609820850E-2,-1.946713328E-1
1.615170297E1,1.337799549E0,1.848179251E-1,-3.342168629E-1
1.616162131E1,1.173753619E0,3.595161438E-1,-4.876104295E-1
1.617155954E1,9.756202698E-1,4.958659708E-1,-6.207645535E-1
1.618149777E1,7.785521746E-1,5.438014865E-1,-7.145050764E-1
1.619144683E1,6.315500140E-1,5.352795720E-1,-7.549839020E-1
1.620138490E1,5.101134777E-1,4.894745648E-1,-7.464620471E-1
1.621132308E1,3.748288751E-1,4.021254778E-1,-7.155702710E-1
1.622127501E1,2.331528813E-1,2.647103965E-1,-6.527215242E-1
1.623121313E1,1.468690038E-1,1.731003672E-1,-5.632419586E-1
1.624115126E1,1.181077138E-1,1.379476786E-1,-4.471315742E-1
1.625106787E1,8.934641629E-2,1.081211492E-1,-3.118469715E-1
1.626100600E1,2.862813696E-2,4.527240247E-2,-1.733666807E-1
1.627094412E1,-3.848154470E-2,-2.290250920E-2,-1.890788600E-2
1.628088469E1,-5.659050494E-2,-5.698996782E-2,1.046591476E-1
1.629082282E1,-1.717688330E-2,-1.304910481E-1,1.280942708E-1
1.630076100E1,-2.263620263E-3,-2.945369184E-1,9.826774895E-2
1.631070922E1,-4.913387448E-2,-4.575175941E-1,7.802832127E-2
1.632064730E1,-1.226349548E-1,-5.629756451E-1,7.163692266E-2
1.633058542E1,-2.110492885E-1,-5.991935730E-1,6.631075591E-2
1.634052547E1,-3.143768907E-1,-5.427362323E-1,7.483261824E-2
1.635046355E1,-4.358134568E-1,-3.946688473E-1,1.003982127E-1
1.636040172E1,-5.519238710E-1,-2.572537661E-1,1.376813650E-1
1.637033058E1,-6.467295885E-1,-2.050573528E-1,1.621817350E-1
1.638026876E1,-7.266221046E-1,-1.560566425E-1,1.685731262E-1
1.639020688E1,-7.724270821E-1,-2.503297664E-2,1.653774232E-1
1.640013318E1,-7.862751484E-1,1.773612946E-1,1.621817350E-1
1.641007126E1,-8.416672349E-1,3.531247377E-1,1.493989378E-1
1.642000943E1,-9.481905699E-1,4.681699276E-1,1.270290315E-1
1.642994610E1,-9.950608015E-1,3.989297748E-1,3.328853101E-2
1.643988428E1,-1.031278729E0,-2.609820850E-2,-1.808233112E-1
1.644982235E1,-1.214498758E0,-5.746932030E-1,-2.724333405E-1
1.645976797E1,-1.488263726E0,-5.576494932E-1,6.524552405E-2
1.646970610E1,-1.455241442E0,-2.881455421E-1,5.436683297E-1
1.647964422E1,-1.229412079E0,-4.191691875E-1,6.086475253E-1
1.648957938E1,-1.076018453E0,-4.202344418E-1,3.070534170E-1
1.649951756E1,-8.097102642E-1,-2.348838747E-1,1.493989378E-1
1.650945563E1,-4.017260075E-1,-3.041240275E-1,2.069215178E-1
1.651939391E1,1.371487509E-2,-6.396724582E-1,2.314218730E-1
1.652933204E1,3.098496497E-1,-6.993255019E-1,1.142462417E-1
1.653927021E1,4.952002168E-1,-3.818860352E-1,-7.856093347E-2
1.654924584E1,6.816160083E-1,-2.732322812E-1,-3.107817471E-1
1.655918396E1,8.690969944E-1,-2.636451721E-1,-5.227631330E-1
1.656912209E1,9.990554452E-1,-8.255556226E-2,-6.633738875E-1
1.657903954E1,1.050186634E0,7.509893179E-2,-7.102441192E-1
1.658897761E1,1.064034581E0,1.699046642E-1,-6.495258212E-1
1.659891579E1,1.056578040E0,2.785584331E-1,-5.387415886E-1
1.660883027E1,9.937292337E-1,3.818860352E-1,-4.535229504E-1
1.661876844E1,8.818798065E-1,4.852136374E-1,-4.002613127E-1
1.662870652E1,7.742912769E-1,5.693670511E-1,-3.491301239E-1
1.663868412E1,6.837464571E-1,5.651060939E-1,-2.894770801E-1
1.664862225E1,6.113106012E-1,4.553871155E-1,-2.127802968E-1
1.665856037E1,5.591141582E-1,2.817541361E-1,-1.105179265E-1
1.666846245E1,5.303528905E-1,1.081211492E-1,1.331541222E-3
1.667840063E1,5.005263686E-1,-2.822867595E-2,9.081111848E-2
1.668833876E1,4.344819188E-1,-1.315562725E-1,1.600512564E-1
1.669831360E1,3.268933892E-1,-2.636451721E-1,2.378132790E-1
1.670825183E1,2.075872868E-1,-4.713656008E-1,3.219666779E-1
1.671819006E1,1.106510833E-1,-6.545857191E-1,3.901416063E-1
1.672811745E1,1.158440951E-2,-7.323477268E-1,4.318188429E-1
1.673805568E1,-1.066564545E-1,-7.067821026E-1,4.296883643E-1
1.674799386E1,-2.408758104E-1,-6.109111309E-1,3.944025338E-1
1.675794042E1,-3.942693770E-1,-5.011921525E-1,3.560541272E-1
1.676787860E1,-5.444672108E-1,-3.989297748E-1,3.198362291E-1
1.677781683E1,-6.467295885E-1,-2.945369184E-1,3.027924895E-1
1.678775037E1,-6.882736683E-1,-1.773612946E-1,3.017272651E-1
1.679768855E1,-6.808170676E-1,-9.853405505E-2,2.719007432E-1
1.680762678E1,-5.849460959E-1,9.054481052E-3,2.260957062E-1
1.681754464E1,-3.505948186E-1,2.902759910E-1,2.015953511E-1
1.682748282E1,-7.682993263E-2,6.673684716E-1,1.217028722E-1
1.683742105E1,-1.141130850E-1,8.953283429E-1,-1.531272531E-1
1.684734594E1,-6.286206245E-1,6.556509137E-1,-5.291544795E-1
1.685728417E1,-1.221955419E0,-1.757634431E-2,-6.772218943E-1
1.686722240E1,-1.450980544E0,-5.150401592E-1,-3.693695366E-1
1.687718678E1,-1.314630747E0,-6.023892760E-1,2.484655976E-1
1.688712495E1,-1.147389174E0,-2.934716940E-1,5.394073725E-1
1.689706318E1,-1.196389794E0,-2.476666719E-1,3.038577139E-1
1.690698058E1,-1.128214955E0,-5.150401592E-1,2.796236612E-2
1.691691881E1,-1.046191931E0,-3.701684773E-1,2.846835256E-1
1.692685704E1,-7.585790753E-1,-1.741656065E-1,8.483249545E-1
1.693680506E1,-9.067796171E-2,-5.384752750E-1,8.909342885E-1
1.694674324E1,4.653736651E-1,-7.153039575E-1,5.479292274E-1
1.695668146E1,9.031844735E-1,-7.930659652E-1,1.003982127E-1
1.696663771E1,1.280276895E0,-9.475247860E-1,-4.705666900E-1
1.697657589E1,1.505041122E0,-1.011438727E0,-9.520519972E-1
1.698651412E1,1.545519948E0,-7.568480372E-1,-1.209838390E0
1.699644256E1,1.414496303E0,-3.829512596E-1,-1.231143117E0
1.700638074E1,1.239798069E0,-2.732322812E-1,-9.978570342E-1
1.701631896E1,1.142861843E0,-2.252967805E-1,-6.452649236E-1
1.702624745E1,1.074687004E0,-1.597849536E-3,-4.045222402E-1
1.703618563E1,1.011838198E0,2.146444470E-1,-2.734985650E-1
1.704612386E1,9.841421843E-1,4.330172241E-1,-1.627143472E-1
1.705606469E1,9.149020314E-1,6.812165380E-1,-9.773512930E-2
1.706600287E1,7.572475076E-1,7.930659652E-1,-3.169068322E-2
1.707594110E1,6.134410501E-1,7.153039575E-1,7.163692266E-2
1.708588881E1,5.101134777E-1,4.660394490E-1,1.621817350E-1
1.709582704E1,3.663070202E-1,9.533835202E-2,2.079867423E-1
1.710576521E1,1.809564531E-1,-1.667089611E-1,2.708354890E-1
1.711567448E1,-2.356828004E-2,-2.561885417E-1,3.794892728E-1
1.712561271E1,-2.248973250E-1,-2.742975056E-1,4.382102489E-1
1.713555094E1,-4.059869349E-1,-1.187734827E-1,4.328840673E-1
1.714549266E1,-5.828156471E-1,1.240996495E-1,4.115794003E-1
1.715543089E1,-7.543181181E-1,2.252967805E-1,3.699021637E-1
1.716536912E1,-8.608414531E-1,1.049254537E-1,2.836183012E-1
1.717533198E1,-8.342106342E-1,-1.017297506E-1,1.930734813E-1
1.718527016E1,-7.660356760E-1,-2.231663167E-1,1.430075318E-1
1.719520839E1,-7.212958932E-1,-2.924064696E-1,1.227681041E-1
1.720513141E1,-6.403381824E-1,-3.083849549E-1,1.035939083E-1
1.721506948E1,-5.210320950E-1,-2.679060996E-1,9.826774895E-2
1.722500761E1,-3.623123765E-1,-1.379476786E-1,1.259638071E-1
1.723494402E1,-1.631138027E-1,9.320788831E-2,1.344856620E-1
1.724488214E1,-2.250304818E-2,2.870802879E-1,9.507204592E-2
1.725482016E1,-1.407439113E-1,3.999949992E-1,-9.320789017E-3
1.726476402E1,-5.998593569E-1,1.922745556E-1,-1.818885356E-1
1.727470209E1,-1.228346825E0,-4.948007464E-1,-1.446053833E-1
1.728464016E1,-1.318891644E0,-1.105179310E0,4.147751033E-1
1.729458245E1,-9.833432436E-1,-9.666989446E-1,1.441659689E0
1.730452053E1,-8.597761989E-1,-2.732322812E-1,1.667489171E0
1.731445860E1,-9.673647285E-1,-6.551183015E-2,8.802819252E-1
1.732440365E1,-6.808170676E-1,-2.338186502E-1,6.267564893E-1
1.733434172E1,-1.471353173E-1,5.054530501E-1,9.686962962E-1
1.734427980E1,2.171743810E-1,1.170158505E0,9.399349689E-1
1.735423339E1,2.938711643E-1,8.878717422E-1,4.382102489E-1
1.736417146E1,3.194367588E-1,6.673684716E-1,-5.193011090E-2
1.737410959E1,5.186353326E-1,5.810846090E-1,-4.897408783E-1
1.738400146E1,8.296833634E-1,1.944050342E-1,-9.413996935E-1
1.739393959E1,1.106643915E0,-2.657756507E-1,-1.172555208E0
1.740387766E1,1.185471177E0,-3.829512596E-1,-1.115032673E0
1.741384141E1,1.120491982E0,-2.881455421E-1,-9.573782086E-1
1.742377948E1,1.106643915E0,-1.720351279E-1,-7.422010899E-1
1.743371756E1,1.077882648E0,-5.272903293E-2,-5.238283277E-1
1.744366433E1,9.500547051E-1,4.793548491E-3,-3.896089792E-1
1.745360240E1,8.339443207E-1,-8.255556226E-2,-3.480648994E-1
1.746354053E1,7.316819429E-1,-1.198387146E-1,-2.884118557E-1
1.747347995E1,5.740274191E-1,1.635132730E-1,-2.330197245E-1
1.748341803E1,4.706998467E-1,2.380795777E-1,-2.138455361E-1
1.749335610E1,4.344819188E-1,-1.970681176E-2,-1.446053833E-1
1.750328256E1,3.620460629E-1,-3.627118468E-1,-3.595161438E-2
1.751322063E1,2.427399755E-1,-5.608451962E-1,2.902759984E-2
1.752315870E1,1.074553803E-1,-5.693670511E-1,8.974587917E-2
1.753310646E1,5.193010904E-3,-6.077154279E-1,2.229000032E-1
1.754304454E1,-4.167724028E-2,-6.258243918E-1,3.986634612E-1
1.755298261E1,-5.339480564E-2,-4.990616739E-1,5.106461048E-1
1.756292459E1,-7.682993263E-2,-2.711018026E-1,4.989285171E-1
1.757286266E1,-1.844184697E-1,-9.746882319E-2,4.178376496E-1
1.758280079E1,-3.505948186E-1,-7.509893179E-2,3.549889028E-1
1.759270964E1,-4.464657903E-1,-2.210358530E-1,3.198362291E-1
1.760264777E1,-4.240958989E-1,-3.371462524E-1,2.953358591E-1
1.761258584E1,-3.378120363E-1,-9.320788831E-2,2.548570037E-1
1.762253152E1,-2.792242169E-1,3.936035931E-1,1.568555683E-1
1.763246954E1,-3.037245572E-1,7.589785457E-1,1.731003635E-2
1.764240766E1,-3.612471521E-1,8.921326399E-1,-1.275616586E-1
1.765234230E1,-4.145087898E-1,7.216953635E-1,-2.916075289E-1
1.766228042E1,-5.817503929E-1,3.051892519E-1,-4.663057625E-1
1.767221850E1,-8.917331696E-1,-1.336867511E-1,-6.101121902E-1
1.768218980E1,-1.148454309E0,-7.696308494E-1,-6.133078933E-1
1.769212787E1,-1.188933253E0,-1.385335565E0,-2.788247466E-1
1.770206600E1,-8.512543440E-1,-1.043395758E0,1.813559234E-1
1.771196402E1,-4.624442756E-1,-1.390129030E-1,3.059881926E-1
1.772190209E1,-4.773575366E-1,5.698996782E-2,-1.222354919E-1
1.773184011E1,-7.596443295E-1,-4.255605936E-1,-6.793523431E-1
1.774179084E1,-1.074953318E0,-3.999949992E-1,-6.750914454E-1
1.775172886E1,-9.588428736E-1,-1.613828093E-1,-2.798899710E-1
1.776166688E1,-4.912055731E-1,-1.645784974E-1,-3.062544949E-2
1.777159308E1,-4.806863889E-2,-1.304910481E-1,-4.127778113E-2
1.778153115E1,3.780245781E-1,-1.965354979E-1,-2.724333405E-1
1.779146922E1,8.445966244E-1,-3.456681073E-1,-5.461982489E-1
1.780141058E1,1.273885489E0,-4.074516296E-1,-6.399387121E-1
1.781134865E1,1.502910614E0,-4.095821083E-1,-5.621767044E-1
1.782128672E1,1.436866164E0,-3.712337017E-1,-4.588491321E-1
1.783121886E1,1.242993832E0,-2.497971505E-1,-2.852161527E-1
1.784115693E1,1.078947902E0,-1.816222370E-1,-4.660394415E-2
1.785109495E1,9.575113058E-1,-1.677742004E-1,9.720251709E-2
1.786105698E1,8.563141823E-1,-4.740286991E-2,1.568555683E-1
1.787099501E1,7.615084648E-1,1.784265339E-1,1.909430176E-1
1.788093303E1,6.549851298E-1,3.808208108E-1,1.962691844E-1
1.789084652E1,5.228962898E-1,4.276910722E-1,1.856168509E-1
1.790078459E1,4.046553969E-1,3.243634701E-1,1.909430176E-1
1.791072261E1,3.236976862E-1,1.656437367E-1,2.079867423E-1
1.792066438E1,2.597837150E-1,6.924014539E-3,1.792254597E-1
1.793060245E1,1.734998226E-1,5.326165119E-4,1.131810099E-1
1.794054053E1,8.295502514E-2,6.870753318E-2,2.583190054E-2
1.795051037E1,-1.398118306E-2,5.485950038E-2,-4.766917601E-2
1.796044844E1,-1.141130850E-1,-6.338136643E-2,-6.790860742E-2
1.797038646E1,-1.535267085E-1,-2.838846147E-1,-7.216953486E-2
1.798032365E1,-1.311568171E-1,-5.395405293E-1,-8.814803511E-2
1.799026167E1,-9.600412846E-2,-7.334129214E-1,-5.725627393E-2
1.800019974E1,-7.043853402E-2,-8.111749291E-1,-1.997311972E-2
1.801011563E1,-1.013302878E-1,-7.706961036E-1,-2.529928461E-2
1.802005365E1,-1.737661362E-1,-6.449986100E-1,-3.595161438E-2
1.802999172E1,-2.121145278E-1,-4.596480429E-1,-2.849498391E-2
1.803992089E1,-2.451367527E-1,-2.828193605E-1,-7.190322969E-3
1.804985896E1,-3.133116663E-1,-1.294258088E-1,-7.989247679E-4
1.805979704E1,-3.836170435E-1,2.290250920E-2,-3.488638252E-2
1.806973042E1,-4.400743842E-1,1.560566425E-1,-1.062569916E-1
1.807966850E1,-5.284887552E-1,2.615146935E-1,-2.095845938E-1
1.808960652E1,-7.127740383E-1,2.434057444E-1,-3.288906813E-1
1.809956584E1,-9.918650985E-1,3.675054014E-2,-3.118469715E-1
1.810950386E1,-1.170824289E0,-1.336867511E-1,4.527240526E-3
1.811944188E1,-1.168693781E0,-1.091863886E-1,4.616453648E-1
1.812939698E1,-1.065366149E0,6.338136643E-2,6.427350044E-1
1.813933506E1,-1.069627166E0,4.170387387E-1,4.424711764E-1
1.814927308E1,-1.166563272E0,5.299534202E-1,6.631075591E-2
1.815918308E1,-1.088801265E0,2.689713240E-1,-2.809551954E-1
1.816912115E1,-8.544500470E-1,2.609820850E-2,-3.459344208E-1
1.817905922E1,-6.030550599E-1,-2.860150635E-1,-2.340849638E-1
1.818900204E1,-3.218335211E-1,-8.559147120E-1,-1.424749196E-1
1.819894011E1,-1.098521575E-1,-1.260703325E0,-8.069140464E-2
1.820887813E1,1.478010789E-2,-9.549813867E-1,-1.307573467E-1
1.821882344E1,2.267614752E-1,-4.223648906E-1,-2.553896308E-1
1.822876157E1,5.324833393E-1,-1.731003672E-1,-3.874785006E-1
1.823869964E1,7.838783264E-1,-1.134473160E-1,-4.929365814E-1
1.824861662E1,9.042496681E-1,-1.283605844E-1,-4.695014656E-1
1.825855480E1,9.447285533E-1,-2.929390781E-2,-2.884118557E-1
1.826849287E1,9.628375173E-1,2.167749256E-1,-1.083874628E-1
1.827844058E1,9.330109954E-1,4.212996662E-1,-2.103835158E-2
1.828837870E1,8.509880304E-1,5.086487532E-1,8.788172156E-3
1.829831688E1,7.668346167E-1,5.672366023E-1,3.115806542E-2
1.830826490E1,6.986597180E-1,5.928021669E-1,5.033225939E-2
1.831820303E1,6.358109713E-1,5.320838690E-1,7.057169080E-2
1.832814115E1,5.846797824E-1,3.754946291E-1,9.720251709E-2
1.833806818E1,5.516575575E-1,1.826874614E-1,1.280942708E-1
1.834800626E1,5.228962898E-1,6.924014539E-3,1.493989378E-1
1.835794438E1,4.760259986E-1,-9.959928691E-2,1.579207927E-1
1.836787324E1,4.003944695E-1,-1.336867511E-1,1.515294015E-1
1.837781141E1,3.109148741E-1,-1.443390697E-1,1.600512564E-1
1.838774948E1,2.342181057E-1,-1.411433816E-1,2.005301118E-1
1.839769360E1,1.958697289E-1,-1.315562725E-1,2.388785034E-1
1.840763172E1,1.713693589E-1,-1.390129030E-1,2.537917793E-1
1.841756990E1,1.340862066E-1,-1.965354979E-1,2.655093372E-1
1.842751474E1,7.336792350E-2,-3.190372884E-1,2.612484097E-1
1.843745287E1,-2.263620263E-3,-4.905398190E-1,2.015953511E-1
1.844739100E1,-1.013302878E-1,-5.810846090E-1,1.366161406E-1
1.845735094E1,-2.163754553E-1,-5.597799420E-1,1.238333359E-1
1.846728902E1,-3.186378181E-1,-4.511261880E-1,1.366161406E-1
1.847722714E1,-3.772256374E-1,-2.870802879E-1,1.547250897E-1
1.848713068E1,-3.900084496E-1,-1.017297506E-1,1.515294015E-1
1.849706886E1,-3.793561161E-1,4.953333735E-2,1.259638071E-1
1.850700698E1,-3.932041526E-1,1.315562725E-1,9.187635034E-2
1.851698303E1,-4.209001958E-1,2.774932086E-1,4.820179567E-2
1.852692115E1,-3.814865649E-1,5.235620141E-1,-7.190322969E-3
1.853685928E1,-3.580514491E-1,5.885412693E-1,-1.105179265E-1
1.854675844E1,-6.318163276E-1,1.166430190E-1,-2.010627389E-1
1.855669657E1,-1.067496657E0,-7.334129214E-1,-7.430000603E-2
1.856663469E1,-1.220890164E0,-1.185071707E0,3.890763521E-1
1.857658600E1,-1.136736751E0,-1.073222280E0,8.515206575E-1
1.858652407E1,-1.083475113E0,-6.961297989E-1,6.736267209E-1
1.859646224E1,-1.172954679E0,-4.527240247E-2,6.950645149E-2
1.860638797E1,-1.259238601E0,2.785584331E-1,-3.203688264E-1
1.861632615E1,-1.170824289E0,2.290250920E-2,-4.503272474E-1
1.862626428E1,-8.672328591E-1,-3.595161438E-1,-2.916075289E-1
1.863624756E1,-3.750951886E-1,-5.832150578E-1,-4.873441160E-2
1.864618568E1,1.575213373E-1,-3.840165138E-1,-6.577813625E-2
1.865612381E1,6.571156383E-1,-2.061225921E-1,-2.607157826E-1
1.866601756E1,1.127948642E0,-2.338186502E-1,-4.354139864E-1
1.867595574E1,1.499714971E0,-1.347519755E-1,-5.216978788E-1
1.868589381E1,1.644586682E0,7.829462737E-2,-5.387415886E-1
1.869585933E1,1.588129282E0,3.925383687E-1,-4.524577260E-1
1.870579740E1,1.490127802E0,6.652380228E-1,-3.171731234E-1
1.871573553E1,1.404909253E0,8.676322699E-1,-2.266283184E-1
1.872564605E1,1.286668301E0,1.108374953E0,-1.882799417E-1
1.873558412E1,1.127948642E0,1.372552752E0,-1.999974996E-1
1.874552214E1,9.287500381E-1,1.588795066E0,-2.447372824E-1
1.875547469E1,6.943987608E-1,1.601577878E0,-2.852161527E-1
1.876541271E1,4.941349626E-1,1.385335565E0,-2.628462613E-1
1.877535074E1,3.620460629E-1,1.064700365E0,-1.989322603E-1
1.878528511E1,2.640446424E-1,6.790860295E-1,-1.243659556E-1
1.879522318E1,1.894783229E-1,2.764279842E-1,-4.021254554E-2
1.880516120E1,1.276948154E-1,-6.444659829E-2,3.222329915E-2
1.881511464E1,2.330197208E-2,-4.420717061E-2,1.217028722E-1
1.882505266E1,-7.896039635E-2,-5.912043154E-2,1.909430176E-1
1.883499068E1,-2.046578974E-1,-1.081211492E-1,2.740311921E-1
1.884493178E1,-3.410077095E-1,-1.219691783E-1,3.038577139E-1
1.885486980E1,-4.358134568E-1,-1.699046642E-1,2.782921195E-1
1.886480782E1,-4.613790512E-1,-2.135792226E-1,2.729659677E-1
1.887472344E1,-4.304873049E-1,-2.423405200E-1,2.708354890E-1
1.888466152E1,-3.868127465E-1,-2.423405200E-1,2.516613007E-1
1.889459954E1,-3.697690070E-1,-1.240996495E-1,2.303566486E-1
1.890453365E1,-3.484643400E-1,1.688394397E-1,2.388785034E-1
1.891447172E1,-2.888112962E-1,5.970631242E-1,2.527265251E-1
1.892440975E1,-1.950708032E-1,9.219591618E-1,2.378132790E-1
1.893437292E1,-8.428656310E-2,9.581770897E-1,1.664426625E-1
1.894431094E1,2.010627277E-2,8.378057480E-1,7.057169080E-2
1.895424896E1,5.525896326E-2,7.174344659E-1,-3.994623665E-3
1.896418324E1,-8.641702682E-2,4.564523399E-1,-8.282186836E-2
1.897412126E1,-3.963998258E-1,1.443390697E-1,-2.202369273E-1
1.898405928E1,-8.299496770E-1,-3.248960897E-2,-4.641752839E-1
1.899398308E1,-1.152715325E0,-3.041240275E-1,-6.878741980E-1
1.900392115E1,-1.089866519E0,-5.981283188E-1,-3.970656097E-1
1.901385917E1,-7.191654444E-1,-6.599118710E-1,8.655018359E-2
1.902379532E1,-5.316844583E-1,-7.280867696E-1,1.419423074E-1
1.903373334E1,-5.774894357E-1,-8.378057480E-1,1.057243794E-1
1.904367136E1,-3.974650800E-1,-9.485899806E-1,5.191679597E-1
1.905362579E1,-7.682993263E-2,-6.300853491E-1,1.271222472E0
1.906356381E1,2.949363887E-1,-2.657756507E-1,1.683467627E0
1.907350188E1,5.516575575E-1,-3.462007269E-2,1.487464786E0
1.908345235E1,6.304848194E-1,2.657756507E-1,9.314131141E-1
1.909339037E1,8.147701025E-1,7.078473568E-1,2.878792286E-1
1.910332844E1,1.078947902E0,1.026352048E0,-2.042584270E-1
1.911326589E1,1.232341409E0,8.026530743E-1,-5.216978788E-1
1.912320391E1,1.169492722E0,4.415390790E-1,-7.645710111E-1
1.913314193E1,8.957278132E-1,4.117125571E-1,-9.073122144E-1
1.914306402E1,6.656374931E-1,5.459319353E-1,-8.412677646E-1
1.915300204E1,6.038539410E-1,5.576494932E-1,-6.644390821E-1
1.916294006E1,5.569837093E-1,4.074516296E-1,-5.845466256E-1
1.917289032E1,4.760259986E-1,2.817541361E-1,-5.344806910E-1
1.918282834E1,4.046553969E-1,1.997311860E-1,-4.844147265E-1
1.919276636E1,3.418066502E-1,9.001219273E-2,-4.364792407E-1
1.920267542E1,2.821536064E-1,2.929390781E-2,-3.842828274E-1
1.921261350E1,2.406095117E-1,2.183727734E-2,-3.342168629E-1
1.922255152E1,2.320876420E-1,1.597849536E-3,-2.734985650E-1
1.923248870E1,2.342181057E-1,-1.864157803E-2,-2.021279633E-1
1.924242678E1,2.448704392E-1,7.989247330E-3,-1.179745570E-1
1.925236480E1,2.651098669E-1,1.123820841E-1,-7.989247679E-4
1.926232704E1,2.608489394E-1,2.647103965E-1,8.548495173E-2
1.927226506E1,2.331528813E-1,3.286243975E-1,8.761541545E-2
1.928220308E1,2.086525112E-1,3.073197305E-1,6.844121963E-2
1.929215178E1,1.671084315E-1,3.339505494E-1,2.396774245E-3
1.930208985E1,8.295502514E-2,3.403419554E-1,-8.708280325E-2
1.931202787E1,-3.315537795E-2,2.742975056E-1,-1.339530498E-1
1.932194001E1,-1.684399694E-1,2.103835195E-1,-1.573881805E-1
1.933187808E1,-3.420729637E-1,1.794917583E-1,-1.637795717E-1
1.934181615E1,-5.870765448E-1,2.103835195E-1,-1.328878254E-1
1.935178079E1,-8.714937568E-1,2.125139832E-1,-6.471290439E-2
1.936171881E1,-1.094127417E0,6.657706201E-2,3.435376659E-2
1.937165688E1,-1.170824289E0,-1.070559174E-1,1.440727711E-1
1.938158016E1,-1.052583337E0,-2.370143533E-1,1.462032348E-1
1.939151818E1,-8.203625679E-1,-4.266258180E-1,1.091863867E-2
1.940145620E1,-6.829475164E-1,-7.802832127E-1,5.592473317E-3
1.941140381E1,-8.310149312E-1,-8.175663352E-1,3.720326424E-1
1.942134188E1,-9.950608015E-1,-2.849498391E-1,6.395393014E-1
1.943127990E1,-9.567124248E-1,-2.290250920E-2,5.724295974E-1
1.944120672E1,-8.640371561E-1,-2.157096863E-1,5.415378213E-1
1.945114474E1,-7.415353656E-1,-7.403369248E-2,4.946675897E-1
1.946108282E1,-6.669690013E-1,7.515218854E-1,3.336842358E-1
1.947101662E1,-5.529890656E-1,9.272853732E-1,9.187635034E-2
1.948095464E1,-2.866808474E-1,3.829512596E-1,-4.979964346E-2
1.949089271E1,8.188978583E-2,1.049254537E-1,-2.276935577E-1
1.950084172E1,4.270252883E-1,-5.698996782E-2,-4.812190235E-1
1.951077974E1,8.541837335E-1,-3.403419554E-1,-7.943975329E-1
1.952071777E1,1.081078410E0,-5.896064639E-1,-9.403344393E-1
1.953063792E1,8.243572116E-1,-1.177082509E-1,-5.898727775E-1
1.954057600E1,8.595098853E-1,1.624480337E-1,-2.660419345E-1
1.955051402E1,9.234238863E-1,1.507304758E-1,-6.790860742E-2
1.956047068E1,8.786841035E-1,2.593842447E-1,1.142462417E-1
1.957040870E1,8.456618786E-1,3.637770712E-1,1.696383655E-1
1.958034678E1,7.519213557E-1,4.926702678E-1,1.483336985E-1
1.959027751E1,6.134410501E-1,6.258243918E-1,1.504641622E-1
1.960021553E1,4.994611442E-1,6.023892760E-1,1.579207927E-1
1.961015355E1,4.142425060E-1,4.532566369E-1,1.483336985E-1
1.962009172E1,3.460675776E-1,3.019935489E-1,1.099853069E-1
1.963002974E1,2.725664973E-1,1.816222370E-1,3.009283356E-2
1.963996777E1,1.553908736E-1,1.283605844E-1,-7.643046975E-2
1.964992422E1,-3.328853287E-3,9.214265645E-2,-1.680405140E-1
1.965986230E1,-1.545919478E-1,2.609820850E-2,-1.584534049E-1
1.966980032E1,-2.717675865E-1,-4.101147130E-2,-7.643046975E-2
1.967972230E1,-3.410077095E-1,-1.304910481E-1,-1.145125460E-2
1.968966032E1,-3.708342612E-1,-2.700365782E-1,6.098458916E-2
1.969959839E1,-3.665733039E-1,-4.585828185E-1,1.366161406E-1
1.970952646E1,-3.228987455E-1,-6.567161679E-1,1.994648874E-1
1.971946454E1,-2.525933683E-1,-7.728265524E-1,2.378132790E-1
1.972940256E1,-1.833532304E-1,-7.664351463E-1,2.591179311E-1
1.973935579E1,-1.545919478E-1,-6.790860295E-1,2.655093372E-1
1.974929391E1,-1.812227666E-1,-5.672366023E-1,2.527265251E-1
1.975923204E1,-2.046578974E-1,-4.617785215E-1,2.229000032E-1
1.976916740E1,-1.812227666E-1,-3.009283245E-1,1.760297567E-1
1.977910558E1,-1.396786869E-1,-3.035914153E-2,1.312899739E-1
1.978904370E1,-1.151783243E-1,2.636451721E-1,1.035939083E-1
1.979896792E1,-1.950708032E-1,4.319519997E-1,7.163692266E-2
1.980890610E1,-4.155740440E-1,4.479304850E-1,2.370143496E-2
