"Time (s)","Acceleration x (m/s^2)","Acceleration y (m/s^2)","Acceleration z (m/s^2)"
3.084744000E-3,4.289134443E-1,-9.879964828E0,-7.208378315E-1
1.302307800E-2,4.911268353E-1,-9.860821724E0,-8.356932998E-1
2.296141100E-2,5.778666735E-1,-1.004746246E1,-9.744769931E-1
3.290167100E-2,5.682953596E-1,-1.014855862E1,-9.218349457E-1
4.284000500E-2,4.815555513E-1,-1.009531879E1,-8.739784956E-1
5.277911900E-2,4.480560422E-1,-1.009053326E1,-7.686942816E-1
6.271745300E-2,4.911268353E-1,-9.966106415E0,-6.873382926E-1
7.261708800E-2,5.635097623E-1,-9.903892517E0,-7.016952634E-1
8.255542100E-2,6.209374666E-1,-9.975677490E0,-7.878368497E-1
9.249375500E-2,5.587241054E-1,-9.913464546E0,-6.825526357E-1
1.024279210E-1,5.150550604E-1,-9.961320877E0,-7.160521746E-1
1.123662030E-1,5.006981492E-1,-9.956535339E0,-7.399803996E-1
1.223045880E-1,4.480560422E-1,-9.913464546E0,-7.591229677E-1
1.322472440E-1,4.049852192E-1,-9.884750366E0,-8.165507317E-1
1.421855780E-1,3.954139352E-1,-9.923035622E0,-8.787640929E-1
1.521238590E-1,4.001995921E-1,-9.961320877E0,-9.074779749E-1
1.620802650E-1,3.619144261E-1,-9.975677490E0,-8.644071817E-1
1.720185980E-1,3.667000830E-1,-9.932606697E0,-8.356932998E-1
1.819569320E-1,3.762713671E-1,-9.923035622E0,-8.261220455E-1
1.918763070E-1,3.619144261E-1,-9.908679008E0,-8.309076428E-1
2.018146920E-1,3.332005441E-1,-9.951749802E0,-8.835497499E-1
2.117530260E-1,3.475574851E-1,-9.951749802E0,-8.835497499E-1
2.216865670E-1,4.049852192E-1,-9.932606697E0,-8.644071817E-1
2.316248480E-1,3.332005441E-1,-9.875179291E0,-8.213363886E-1
2.415631820E-1,4.193421602E-1,-9.879964828E0,-9.266205430E-1
2.515174530E-1,4.624129832E-1,-9.899106979E0,-9.170492887E-1
2.614557860E-1,5.006981492E-1,-9.956535339E0,-1.003190875E0
2.713941190E-1,5.294120312E-1,-9.956535339E0,-9.936196208E-1
2.813021920E-1,5.198407173E-1,-9.966106415E0,-9.744769931E-1
2.912404730E-1,4.671986103E-1,-9.999606133E0,-9.457631707E-1
3.011788070E-1,4.145565331E-1,-9.975677490E0,-9.122636318E-1
3.111378170E-1,3.858426511E-1,-9.946963310E0,-9.361918569E-1
3.210761510E-1,3.858426511E-1,-9.975677490E0,-9.792626500E-1
3.310144320E-1,4.097708762E-1,-1.001396275E1,-9.792626500E-1
3.409669840E-1,4.241278172E-1,-9.990034103E0,-1.007976532E0
3.509052650E-1,4.145565331E-1,-9.951749802E0,-9.888339639E-1
3.608436510E-1,4.193421602E-1,-9.932606697E0,-9.457631707E-1
3.707614110E-1,4.576273263E-1,-9.942177773E0,-9.170492887E-1
3.806997440E-1,4.767699242E-1,-9.951749802E0,-9.553344250E-1
3.906380780E-1,4.528416991E-1,-9.932606697E0,-9.074779749E-1
4.005909940E-1,3.954139352E-1,-9.856036186E0,-8.500502706E-1
4.105293280E-1,3.714857101E-1,-9.860821724E0,-7.926225066E-1
4.204676610E-1,4.097708762E-1,-9.961320877E0,-7.639086246E-1
4.303999010E-1,4.049852192E-1,-1.009531879E1,-7.878368497E-1
4.403382340E-1,2.518445849E-1,-1.016770172E1,-8.787640929E-1
4.502765670E-1,1.178465188E-1,-1.022991467E1,-1.161715388E0
4.602060460E-1,1.130608693E-1,-1.039262676E1,-1.554138303E0
4.701443280E-1,7.477571070E-2,-1.046919727E1,-1.707877159E0
4.800826610E-1,2.691925503E-2,-1.030648518E1,-1.841875196E0
4.900123480E-1,3.649054468E-2,-9.846465111E0,-1.937588096E0
4.999506820E-1,1.752742529E-1,-9.305088997E0,-2.047657967E0
5.098889630E-1,4.193421602E-1,-8.821140289E0,-2.651247501E0
5.198276090E-1,7.022934556E-1,-8.313263893E0,-3.303291559E0
5.297659940E-1,9.702895880E-1,-7.738388538E0,-3.135195971E0
5.397042760E-1,1.186241865E0,-7.182655334E0,-2.915056229E0
5.496556300E-1,1.521237016E0,-6.875775814E0,-2.828914642E0
5.595938070E-1,2.182852507E0,-6.746563435E0,-1.971087694E0
5.695319840E-1,2.762513638E0,-6.545566559E0,-9.601200819E-1
5.794817230E-1,2.724228621E0,-6.353542328E0,-6.107679605E-1
5.894199010E-1,2.321636200E0,-6.502495766E0,-8.213363886E-1
5.993580780E-1,2.091326952E0,-7.350152969E0,-1.286142230E0
6.092971920E-1,1.828116536E0,-8.553144455E0,-1.688734531E0
6.192353170E-1,7.884350419E-1,-9.745966911E0,-2.306680918E0
6.291734940E-1,-2.464607358E-1,-1.093878841E1,-2.757129908E0
6.391074530E-1,-1.012762189E0,-1.198804188E1,-3.561716557E0
6.490456300E-1,-1.822732687E0,-1.272084332E1,-3.806382656E0
6.589838070E-1,-2.900699139E0,-1.227099228E1,-3.686143398E0
6.689298480E-1,-3.120838881E0,-1.103928757E1,-3.633501291E0
6.788680260E-1,-2.785843849E0,-9.549157143E0,-3.317648649E0
6.888062030E-1,-2.373680115E0,-8.294121742E0,-3.341576815E0
6.987101610E-1,-1.784447432E0,-7.590033531E0,-3.485146284E0
7.086483900E-1,-7.016952634E-1,-7.518248558E0,-4.716253281E0
7.185865150E-1,4.480560422E-1,-8.121838570E0,-6.211169243E0
7.285369320E-1,6.640082598E-1,-8.538787842E0,-6.201598167E0
7.384750570E-1,3.954139352E-1,-8.711071014E0,-6.105885029E0
7.484132340E-1,3.427718580E-1,-8.801998138E0,-5.621936798E0
7.583834420E-1,-2.632104978E-2,-8.452047348E0,-4.591826439E0
7.683216190E-1,7.776673418E-3,-8.131409645E0,-4.107878208E0
7.782597960E-1,6.544370055E-1,-7.929814339E0,-3.724428415E0
7.881656820E-1,1.392024517E0,-7.738388538E0,-4.395615101E0
7.981038070E-1,1.368096352E0,-7.527820110E0,-6.120242119E0
8.080420360E-1,6.879364848E-1,-6.933801651E0,-6.704689026E0
8.180087550E-1,1.992024779E-1,-6.602993965E0,-6.503692150E0
8.279469320E-1,1.178465188E-1,-6.598208427E0,-6.220740795E0
8.378851090E-1,-5.240281820E-1,-6.540780544E0,-5.736792088E0
8.477999010E-1,-1.674377680E0,-6.684350014E0,-5.545366287E0
8.577380780E-1,-1.956730723E0,-7.134799004E0,-5.416153908E0
8.676762550E-1,-1.784447432E0,-7.388438225E0,-5.252843857E0
8.776087550E-1,-1.913659930E0,-7.436892986E0,-5.665007591E0
8.875469840E-1,-1.904088616E0,-7.456035137E0,-6.201598167E0
8.974851610E-1,-2.378465652E0,-7.475177765E0,-6.814758778E0
9.074333380E-1,-3.265006542E0,-7.412366390E0,-7.011568546E0
9.173715150E-1,-3.609572887E0,-7.082156658E0,-6.757331371E0
9.273096920E-1,-3.494717360E0,-6.598208427E0,-6.680760860E0
9.372607860E-1,-3.135195971E0,-6.114260197E0,-6.244668961E0
9.471989630E-1,-2.249253273E0,-5.534598827E0,-6.460621357E0
9.571371400E-1,-1.741376638E0,-5.275575638E0,-6.642475605E0
9.670596920E-1,-1.171286702E0,-5.673382282E0,-6.642475605E0
9.769978170E-1,-3.134597540E-1,-5.860620975E0,-7.250850677E0
9.869359940E-1,2.709871531E-1,-5.788238049E0,-7.672585964E0
9.968530260E-1,4.097708762E-1,-5.687739372E0,-7.864011765E0
1.006791255E0,-3.613162339E-1,-5.414957523E0,-8.395816803E0
1.016729380E0,-1.798804402E0,-5.347958565E0,-7.988438606E0
1.026674953E0,-2.579462767E0,-5.376672268E0,-8.123034477E0
1.036613130E0,-3.092125177E0,-5.319244862E0,-7.260422230E0
1.046551359E0,-3.552145243E0,-5.505885124E0,-7.418348312E0
1.056486046E0,-3.293720484E0,-5.716453075E0,-7.581658363E0
1.066424171E0,-2.569891453E0,-5.855835438E0,-6.766902447E0
1.076362296E0,-1.755733609E0,-5.682953835E0,-6.876972198E0
1.086316932E0,-1.180858016E0,-5.338387489E0,-8.443673134E0
1.096255005E0,-8.979067206E-1,-4.964509010E0,-9.981659889E0
1.106193130E0,-9.505487680E-1,-5.002793789E0,-9.172286987E0
1.116144640E0,-1.482353687E0,-4.969294548E0,-8.970691681E0
1.126082765E0,-1.956730723E0,-4.883152962E0,-9.153144836E0
1.136020838E0,-2.042872429E0,-4.926223755E0,-9.066405296E0
1.145933598E0,-1.626521230E0,-5.170291424E0,-9.430712700E0
1.155871723E0,-1.525424480E0,-4.787439823E0,-8.841479301E0
1.165809848E0,-1.956730723E0,-4.380061626E0,-8.319246292E0
1.175779588E0,-2.690130949E0,-4.020540237E0,-8.750552177E0
1.185717661E0,-2.871985435E0,-4.111467361E0,-7.935796261E0
1.195655786E0,-2.795415163E0,-3.627519131E0,-8.218747139E0
1.205575369E0,-2.119442701E0,-3.004786968E0,-9.866804123E0
1.215513442E0,-1.065404296E0,-2.751147747E0,-1.056132126E1
1.225451567E0,-1.698904037E-1,-2.539981127E0,-9.924231529E0
1.235409380E0,-2.799602449E-1,-2.429911375E0,-1.001037312E1
1.245347505E0,-1.290927768E0,-2.152343988E0,-8.999405861E0
1.255285578E0,-1.400997639E0,-2.358126640E0,-8.721838951E0
1.265219015E0,-1.798804402E0,-2.751147747E0,-9.924231529E0
1.275157088E0,-2.206182480E0,-3.177668571E0,-9.564710617E0
1.285095265E0,-2.737987280E0,-2.947359324E0,-9.732806206E0
1.295035473E0,-3.293720484E0,-2.520838737E0,-1.024546814E1
1.304973546E0,-2.014158487E0,-2.592623234E0,-9.895518303E0
1.314911671E0,-8.548358679E-1,-2.036890268E0,-1.013958549E1
1.324835630E0,-5.048855543E-1,-1.289731383E0,-9.890732765E0
1.334773703E0,-7.351947427E-1,-9.924231768E-1,-1.016889763E1
1.344711828E0,-4.139583111E-1,-1.323230863E0,-1.047039413E1
1.354650578E0,-1.363908947E-1,-1.639681697E0,-1.098784161E1
1.364588651E0,-1.391426325E0,-1.630110383E0,-1.174457169E1
1.374526776E0,-1.985444546E0,-1.802393675E0,-1.113141060E1
1.384479432E0,-1.698305845E0,-2.114058733E0,-1.041296577E1
1.394417557E0,-1.736590981E0,-1.625324726E0,-1.131864929E1
1.404355682E0,-1.904088616E0,-7.770691514E-1,-1.204187965E1
1.414295473E0,-6.251249313E-1,-9.828519225E-1,-1.048953629E1
1.424233546E0,-3.565305769E-1,-7.483552694E-1,-1.030289650E1
1.434171671E0,-5.868397355E-1,-4.654040039E-1,-1.140000534E1
1.444098755E0,-8.500502706E-1,-3.457628787E-1,-1.178345490E1
1.454036828E0,-1.813161373E0,-4.426721856E-2,-1.146700478E1
1.463974953E0,-2.690130949E0,8.554340899E-2,-1.203709412E1
1.473921723E0,-2.871985435E0,3.708875179E-2,-1.231525993E1
1.483859848E0,-2.435893536E0,-2.512463741E-2,-1.246840096E1
1.493797921E0,-2.119442701E0,3.708875179E-2,-1.220937729E1
1.503709692E0,-1.774876237E0,-5.982056726E-3,-1.204187965E1
1.513647817E0,-1.444068432E0,-2.165504545E-1,-1.210887909E1
1.523585942E0,-1.176072359E0,-4.707878530E-1,-1.220937729E1
1.533526255E0,-8.931210637E-1,-4.995017350E-1,-1.204666519E1
1.543464328E0,-5.533402562E-1,-4.510470629E-1,-1.173021507E1
1.553402453E0,-5.868397355E-1,-5.425725579E-1,-1.204187965E1
1.563353703E0,-1.238285661E0,-6.382854581E-1,-1.219980621E1
1.573291880E0,-1.621735573E0,-7.244270444E-1,-1.243968678E1
1.583230057E0,-1.544566989E0,-1.021735311E0,-1.291406345E1
1.593164901E0,-1.410568953E0,-1.001994491E0,-1.248275757E1
1.603103078E0,-1.094716311E0,-8.440681696E-1,-1.208973598E1
1.613041307E0,-9.553344250E-1,-8.488538265E-1,-1.231525993E1
1.622990265E0,-9.361918569E-1,-8.823533654E-1,-1.187916756E1
1.632928442E0,-8.979067206E-1,-1.208375454E0,-1.155314636E1
1.642866671E0,-7.495517135E-1,-1.342373490E0,-1.136650562E1
1.652790526E0,-6.969096065E-1,-1.361516118E0,-1.128514957E1
1.662728703E0,-1.007976532E0,-1.332802176E0,-1.143829060E1
1.672666932E0,-1.391426325E0,-1.351944804E0,-1.135214901E1
1.682612401E0,-1.477568030E0,-1.673181176E0,-1.134736347E1
1.692550578E0,-1.405783296E0,-2.114058733E0,-1.134257793E1
1.702488807E0,-1.228714466E0,-2.185843468E0,-1.081077290E1
1.712430942E0,-9.984052777E-1,-2.051247120E0,-1.102134132E1
1.722369119E0,-1.252642632E0,-2.123630047E0,-1.127557850E1
1.732307348E0,-1.520638824E0,-2.051247120E0,-1.076770210E1
1.742223911E0,-1.525424480E0,-1.955534339E0,-1.049910736E1
1.752162140E0,-1.621735573E0,-2.176272154E0,-1.075813103E1
1.762100265E0,-1.592423439E0,-2.477767944E0,-1.063310528E1
1.772046151E0,-1.386640668E0,-2.698505640E0,-1.059482002E1
1.781984328E0,-1.238285661E0,-2.818146944E0,-1.057567787E1
1.791922557E0,-1.286142230E0,-2.827718258E0,-1.056610680E1
1.801880994E0,-1.386640668E0,-2.933002472E0,-1.035075283E1
1.811819171E0,-1.420140266E0,-2.966501951E0,-1.010130119E1
1.821757401E0,-1.405783296E0,-3.110071182E0,-1.036510944E1
1.831670421E0,-1.515853167E0,-3.268595695E0,-9.890732765E0
1.841608598E0,-1.722234130E0,-3.263810158E0,-9.507282257E0
1.851546828E0,-1.947159410E0,-3.326023579E0,-1.014437199E1
1.861511046E0,-2.244467735E0,-3.603590965E0,-9.881160736E0
1.871449223E0,-2.167897224E0,-3.881756544E0,-9.339784622E0
1.881387453E0,-1.985444546E0,-4.130609989E0,-9.675378799E0
1.891313859E0,-1.908874273E0,-4.427918434E0,-9.545567513E0
1.901252088E0,-1.841875196E0,-4.528416634E0,-9.651450157E0
1.911190265E0,-1.851446509E0,-4.408775806E0,-9.737591743E0
1.921105786E0,-2.244467735E0,-4.332205296E0,-9.215357780E0
1.931044015E0,-2.478964329E0,-4.403990269E0,-8.870193481E0
1.940982192E0,-2.598605394E0,-4.662415028E0,-8.640482903E0
1.950932713E0,-2.292324066E0,-4.959722996E0,-8.688339233E0
1.960870942E0,-1.971087694E0,-5.300102234E0,-8.592626572E0
1.970809119E0,-1.612164259E0,-5.548955917E0,-8.539385796E0
1.980736411E0,-1.367498159E0,-5.692524910E0,-8.534600258E0
1.990674692E0,-1.333998680E0,-5.884549141E0,-8.089534760E0
2.000612817E0,-1.612164259E0,-6.032904148E0,-7.519444942E0
2.010561984E0,-1.664806366E0,-6.133402824E0,-7.480561733E0
2.020500213E0,-1.582852125E0,-6.343971252E0,-7.317849636E0
2.030438390E0,-1.439282775E0,-6.626922131E0,-7.150352478E0
2.040370213E0,-1.080359459E0,-6.784848690E0,-7.236494064E0
2.050308442E0,-6.586244106E-1,-6.780063152E0,-6.992425919E0
2.060246671E0,-4.666004181E-1,-6.924230576E0,-6.843472958E0
2.070180890E0,-5.437689424E-1,-7.192226887E0,-7.001997471E0
2.080119015E0,-7.208378315E-1,-7.412366390E0,-6.939185619E0
2.090057140E0,-7.878368497E-1,-7.618747234E0,-6.575476646E0
2.099994380E0,-7.591229677E-1,-7.762316704E0,-5.967101574E0
2.109932557E0,-7.543373108E-1,-7.743174076E0,-5.535795212E0
2.119870630E0,-7.112665176E-1,-7.680960655E0,-5.492724419E0
2.129835838E0,-5.240281820E-1,-7.680960655E0,-5.660222054E0
2.139773963E0,-3.517449200E-1,-7.810173035E0,-5.319842815E0
2.149712088E0,-1.507478207E-1,-7.973483086E0,-4.773681164E0
2.159623703E0,-1.196411345E-2,-8.174480438E0,-5.066203594E0
2.169561880E0,2.087737769E-1,-8.284550667E0,-4.936991215E0
2.179500005E0,2.327020019E-1,-8.294121742E0,-4.591826439E0
2.189446098E0,1.034895778E-1,-8.193622589E0,-4.610969067E0
2.199384223E0,7.477571070E-2,-8.078767776E0,-4.764110088E0
2.209322348E0,-7.178467698E-3,-8.050053596E0,-4.074378967E0
2.219249171E0,3.170489892E-2,-8.179265976E0,-3.413361549E0
2.229187296E0,3.170489892E-2,-8.361120224E0,-2.838485956E0
2.239125421E0,1.734796353E-2,-8.327621460E0,-2.273181438E0
2.249075786E0,1.274178028E-1,-8.394619942E0,-2.848057270E0
2.259013859E0,3.810569942E-1,-8.207980156E0,-2.852842808E0
2.268951984E0,3.714857101E-1,-8.040482521E0,-2.584248543E0
2.278903911E0,4.576273263E-1,-7.915457249E0,-2.680559635E0
2.288842036E0,5.054838061E-1,-7.470392227E0,-2.459821701E0
2.298780161E0,5.826523304E-1,-7.197012424E0,-2.206182480E0
2.308700890E0,8.362914920E-1,-6.991229534E0,-2.085943222E0
2.318639015E0,7.453642488E-1,-6.574280262E0,-2.210968018E0
2.328577192E0,5.730810165E-1,-6.166902065E0,-2.541177750E0
2.338513651E0,5.970092416E-1,-6.008975983E0,-2.900699139E0
2.348451776E0,6.257231236E-1,-6.109474182E0,-3.187838078E0
2.358389901E0,4.528416991E-1,-6.267400742E0,-3.092125177E0
2.368341255E0,4.145565331E-1,-6.713063717E0,-3.183052301E0
2.378279328E0,6.448656917E-1,-7.321439266E0,-3.446861029E0
2.388217505E0,6.496513486E-1,-7.733603001E0,-3.859024763E0
2.398143598E0,6.975077987E-1,-8.121838570E0,-4.376472473E0
2.408081776E0,7.788637877E-1,-8.452047348E0,-4.227519512E0
2.418019848E0,9.511470199E-1,-8.768498421E0,-3.806382656E0
2.427956098E0,1.042074203E0,-9.281160355E0,-3.427718401E0
2.437894223E0,1.037288666E0,-9.827322960E0,-3.332005501E0
2.447832401E0,1.195813060E0,-1.022991467E1,-3.566502094E0
2.457790005E0,1.234098315E0,-1.048833942E1,-3.461217880E0
2.467728130E0,1.003789067E0,-1.067557812E1,-3.039483070E0
2.477666255E0,7.692924738E-1,-1.063669491E1,-2.431107759E0
2.487584223E0,8.793623447E-1,-1.058405304E1,-1.750947952E0
2.497522401E0,1.071386337E0,-1.059840965E1,-1.410568953E0
2.507460526E0,1.243669510E0,-1.052662468E1,-1.496710539E0
2.517435630E0,1.372882009E0,-1.022512913E1,-1.789233088E0
2.527373755E0,1.320239902E0,-9.812965393E0,-1.947159410E0
2.537311880E0,7.310073376E-1,-9.453444481E0,-1.937588096E0
2.547219901E0,2.470589429E-1,-9.104091644E0,-1.875374794E0
2.557157973E0,5.084748194E-2,-8.993423462E0,-1.918445587E0
2.567096151E0,1.734796353E-2,-9.007781029E0,-1.985444546E0
2.577053598E0,-1.316052526E-1,-8.935996056E0,-2.014158487E0
2.586991828E0,-1.124626622E-1,-8.935996056E0,-2.148754835E0
2.596930057E0,2.662015259E-1,-9.142376900E0,-2.407179594E0
2.606854015E0,7.501499057E-1,-9.496515274E0,-2.871985435E0
2.616792192E0,1.234098315E0,-9.731609344E0,-3.552145243E0
2.626730473E0,1.444666624E0,-9.592825890E0,-4.222733974E0
2.636684067E0,1.310668588E0,-8.988637924E0,-4.285545349E0
2.646622296E0,1.076171994E0,-8.207980156E0,-4.083950043E0
2.656560526E0,9.272187948E-1,-7.805387497E0,-4.021736622E0
2.666467192E0,9.032905698E-1,-7.666603565E0,-3.993022680E0
2.676405421E0,1.133599758E0,-7.465606689E0,-3.844667673E0
2.686343703E0,1.780260086E0,-7.499105930E0,-4.453042984E0
2.696318807E0,2.240280151E0,-7.834101200E0,-3.945166349E0
2.706257036E0,1.952543259E0,-7.910671711E0,-2.187039852E0
2.716195265E0,1.703689694E0,-7.513463020E0,-1.286142230E0
2.726108494E0,2.479562521E0,-7.053442955E0,-8.021938205E-1
2.736046671E0,2.618346214E0,-6.924230576E0,-6.729813814E-1
2.745984953E0,1.463809252E0,-6.880561352E0,-1.268195957E-1
2.755939484E0,4.815555513E-1,-7.637889862E0,-4.378865361E-1
2.765877713E0,-1.003190875E0,-8.510073662E0,-2.167897224E0
2.775815942E0,-2.704487801E0,-8.792427063E0,-4.079164505E0
2.785723651E0,-3.178266764E0,-8.955139160E0,-5.200201988E0
2.795661880E0,-2.632104874E0,-8.758927345E0,-4.539184570E0
2.805600161E0,-1.046261668E0,-8.365905762E0,-4.021736622E0
2.815539432E0,8.554341197E-1,-8.078767776E0,-3.466003656E0
2.825477661E0,2.297708035E0,-8.289336205E0,-3.729214191E0
2.835415942E0,2.076970100E0,-8.940781593E0,-3.945166349E0
2.845397713E0,-5.240281820E-1,-8.601000786E0,-3.792025566E0
2.855335942E0,-2.800200701E0,-7.853243828E0,-4.553541660E0
2.865274223E0,-3.058625460E0,-7.700103283E0,-4.893920422E0
2.875195109E0,-1.573280931E0,-8.040482521E0,-5.248058319E0
2.885133338E0,9.870393574E-2,-8.246265411E0,-5.238486767E0
2.895071567E0,1.082752272E-1,-7.814958572E0,-4.295116425E0
2.904979848E0,-5.868397355E-1,-7.383652687E0,-4.515256405E0
2.914918078E0,-1.698904037E-1,-7.383652687E0,-4.984847546E0
2.924856359E0,1.334596872E0,-7.709674358E0,-6.618547440E0
2.934829588E0,2.474776745E0,-8.601000786E0,-7.605587006E0
2.944767817E0,2.163709879E0,-9.305088997E0,-6.220740795E0
2.954706046E0,9.846464992E-1,-8.983852386E0,-5.118845940E0
2.964629588E0,-5.288137794E-1,-7.757531166E0,-6.378666878E0
2.974567765E0,-1.636092424E0,-6.602993965E0,-6.853044033E0
2.984506046E0,-1.727019787E0,-5.965905190E0,-6.134599209E0
2.994444744E0,-1.558923960E0,-5.726024628E0,-5.593223095E0
3.004382973E0,-1.348355532E0,-5.740381718E0,-6.177670002E0
3.014321203E0,-1.534995675E0,-5.975476265E0,-7.840083599E0
3.024277817E0,-1.353141189E0,-6.646064758E0,-8.381459236E0
3.034216046E0,-8.883354068E-1,-7.335795879E0,-8.568697929E0
3.044154276E0,-1.195214868E0,-7.968697548E0,-9.071190834E0
3.054090994E0,-1.904088616E0,-8.184051514E0,-9.334999084E0
3.064029223E0,-2.632104874E0,-7.489534855E0,-8.170890808E0
3.073967453E0,-3.662214994E0,-6.425925255E0,-7.102495670E0
3.083885786E0,-3.705285788E0,-5.443671703E0,-7.859225750E0
3.093823911E0,-2.852842808E0,-4.628915310E0,-8.146963120E0
3.103762088E0,-1.899302959E0,-3.867399693E0,-8.989834785E0
3.113712765E0,-1.099501967E0,-3.483949661E0,-1.044167995E1
3.123650890E0,-5.964110494E-1,-3.641875982E0,-1.003908730E1
3.133589067E0,-1.075573802E0,-4.298706055E0,-9.258428574E0
3.143515421E0,-1.693520188E0,-4.811367989E0,-8.846264839E0
3.153453546E0,-1.377069473E0,-5.405386448E0,-9.013762474E0
3.163391723E0,-8.596215248E-1,-5.448457241E0,-8.592626572E0
3.173348651E0,-3.421736360E-1,-5.002793789E0,-8.347960472E0
3.183286776E0,-5.389832854E-1,-4.284348965E0,-8.592626572E0
3.193224953E0,-1.501496196E0,-3.598805189E0,-9.008976936E0
3.203157713E0,-2.742773056E0,-3.268595695E0,-8.937192917E0
3.213095838E0,-2.728415966E0,-3.105285645E0,-8.481958389E0
3.223034015E0,-1.722234130E0,-3.187239647E0,-9.459425926E0
3.232952765E0,-1.487139225E0,-3.023929596E0,-1.018804073E1
3.242890890E0,-1.770090580E0,-2.894717216E0,-9.588638306E0
3.252829067E0,-1.539781332E0,-3.215953588E0,-9.075976372E0
3.262789484E0,-1.875374794E0,-3.302095175E0,-1.001037312E1
3.272727609E0,-1.817947030E0,-3.192025423E0,-1.006301594E1
3.282665786E0,-9.696913958E-1,-3.359523058E0,-8.391031265E0
3.292601463E0,-7.112665176E-1,-2.813361168E0,-8.587840080E0
3.302539588E0,-1.123430252E0,-2.065604210E0,-9.459425926E0
3.312477765E0,-1.741376638E0,-1.907677889E0,-9.895518303E0
3.322425994E0,-9.649057388E-1,-2.257628202E0,-9.445069313E0
3.332364119E0,-6.586244106E-1,-2.109273195E0,-9.632308006E0
3.342302348E0,-9.649057388E-1,-1.543968797E0,-1.029811001E1
3.352211307E0,-1.329213023E0,-1.596610904E0,-1.001994514E1
3.362149432E0,-1.813161373E0,-1.840678811E0,-1.007737255E1
3.372087609E0,-2.431107759E0,-2.051247120E0,-1.105962658E1
3.382013078E0,-2.555534601E0,-2.420340061E0,-1.090648556E1
3.391951255E0,-1.582852125E0,-2.956930637E0,-9.378069878E0
3.401889432E0,-4.713860750E-1,-2.751147747E0,-9.766305923E0
3.411847401E0,3.523431420E-1,-1.955534339E0,-1.111226845E1
3.421785526E0,1.334596872E0,-1.740180254E0,-1.049432182E1
3.431723703E0,8.075776696E-1,-1.203589797E0,-1.077727318E1
3.441659692E0,-6.394818425E-1,-8.392825127E-1,-1.173021507E1
3.451597817E0,-8.213363886E-1,-1.308874011E0,-1.101655579E1
3.461535994E0,-3.326023519E-1,-1.318445325E0,-1.144307613E1
3.471487505E0,-2.004587173E0,-8.919246197E-1,-1.176909828E1
3.481425682E0,-2.714059114E0,-5.569294691E-1,-1.099741268E1
3.491363807E0,-1.463211060E0,-4.851447940E-1,-1.126122189E1
3.501282869E0,-1.539781332E0,2.751746029E-2,-1.153400326E1
3.511221046E0,-2.675175667E0,5.018945336E-1,-1.106919765E1
3.521159171E0,-1.990230203E0,-3.840480447E-1,-1.170628643E1
3.531102348E0,-3.038884699E-1,-5.904290080E-1,-1.234397411E1
3.541040473E0,-5.024927482E-2,6.101697683E-2,-1.136650562E1
3.550978703E0,9.391828626E-2,8.374879137E-3,-1.003908730E1
3.560920109E0,-4.546362907E-2,4.492524564E-1,-1.070070267E1
3.570858234E0,-5.581258535E-1,1.000199914E0,-1.170150089E1
3.580796411E0,-8.165507317E-1,1.119840980E0,-1.217109203E1
3.590727609E0,-1.089930773E0,1.062413216E0,-1.197009563E1
3.600665734E0,-1.525424480E0,8.757730722E-1,-1.211366463E1
3.610603911E0,-1.511067510E0,4.923232496E-1,-1.233918858E1
3.620538755E0,-1.070788145E0,4.827519655E-1,-1.218544960E1
3.630476932E0,-7.399803996E-1,7.800601721E-1,-1.222852039E1
3.640415109E0,-7.591229677E-1,9.906286001E-1,-1.230568886E1
3.650357140E0,-5.485545993E-1,6.843472719E-1,-1.232004547E1
3.660295265E0,-3.182454109E-1,6.173482537E-1,-1.208973598E1
3.670233442E0,-4.043870270E-1,7.752745152E-1,-1.187916756E1
3.680192192E0,-3.613162339E-1,6.987041831E-1,-1.136650562E1
3.690130317E0,-4.283152521E-1,8.135597110E-1,-1.132343483E1
3.700068494E0,-8.404789567E-1,7.704889178E-1,-1.188395405E1
3.710006776E0,-1.338784218E0,7.226324677E-1,-1.165364456E1
3.719944848E0,-1.626521230E0,5.306084156E-1,-1.165843010E1
3.729883026E0,-1.582852125E0,2.913261652E-1,-1.175892830E1
3.739788234E0,-1.247856975E0,3.726821244E-1,-1.109312534E1
3.749726411E0,-9.409775138E-1,2.961117923E-1,-1.123729324E1
3.759664536E0,-9.888339639E-1,2.243271172E-1,-1.122712421E1
3.769632192E0,-9.840483069E-1,1.238285750E-1,-1.086341476E1
3.779570317E0,-1.070788145E0,-2.165504545E-1,-1.106441212E1
3.789508494E0,-1.276570916E0,-5.042873621E-1,-1.115055370E1
3.799433963E0,-1.424925923E0,-6.574280262E-1,-1.120319557E1
3.809372088E0,-1.477568030E0,-8.009973764E-1,-1.087298584E1
3.819310265E0,-1.429711580E0,-9.637092948E-1,-1.061874866E1
3.829249432E0,-1.286142230E0,-1.366301775E0,-1.103569794E1
3.839187557E0,-1.137787223E0,-1.558325768E0,-1.045125103E1
3.849125734E0,-8.261220455E-1,-1.587039590E0,-1.010608673E1
3.859082973E0,-5.964110494E-1,-1.610967875E0,-1.072463131E1
3.869021098E0,-5.916253924E-1,-1.673181176E0,-1.050867844E1
3.878959276E0,-8.165507317E-1,-1.644467354E0,-1.003908730E1
3.888871932E0,-1.123430252E0,-1.716252089E0,-1.015932655E1
3.898810057E0,-1.386640668E0,-2.036890268E0,-1.047517967E1
3.908748182E0,-1.568495274E0,-2.415554523E0,-1.032682419E1
3.918711359E0,-1.511067510E0,-2.822932482E0,-9.952945709E0
3.928649484E0,-1.247856975E0,-3.019144058E0,-9.852447510E0
3.938587661E0,-8.500502706E-1,-3.057429075E0,-1.019761181E1
3.948508807E0,-6.729813814E-1,-3.086143017E0,-1.023589706E1
3.958446932E0,-9.409775138E-1,-3.100499868E0,-9.656235695E0
3.968385109E0,-1.161715388E0,-3.095714331E0,-9.775876999E0
3.978325578E0,-1.439282775E0,-3.326023579E0,-1.020718288E1
3.988263703E0,-1.664806366E0,-3.699902058E0,-9.952945709E0
3.998201880E0,-1.458425403E0,-4.202394962E0,-1.033160973E1
4.008167088E0,-1.515853167E0,-4.633700848E0,-9.871589661E0
4.018105213E0,-1.424925923E0,-4.907081127E0,-9.023334503E0
4.028043338E0,-1.075573802E0,-4.954937458E0,-9.559925079E0
4.037950421E0,-1.166501045E0,-4.849653244E0,-9.751948357E0
4.047888546E0,-1.444068432E0,-4.748556614E0,-9.153144836E0
4.057826723E0,-1.693520188E0,-4.614558697E0,-9.502496719E0
4.067751932E0,-1.703091502E0,-4.585844517E0,-9.641879082E0
4.077690109E0,-1.660020709E0,-4.777868748E0,-9.172286987E0
4.087628286E0,-1.601994753E0,-4.926223755E0,-9.181859016E0
4.097580369E0,-1.539781332E0,-5.069792747E0,-9.425926208E0
4.107518546E0,-1.808375716E0,-5.218147755E0,-8.764909744E0
4.117456723E0,-1.755733609E0,-5.295316696E0,-7.634300709E0
4.127401567E0,-1.104287624E0,-5.410171986E0,-8.505886078E0
4.137339744E0,-7.830511928E-1,-5.682953835E0,-8.941978455E0
4.147277921E0,-9.314061999E-1,-6.071189404E0,-7.954938889E0
4.157220421E0,-1.031904817E0,-6.253043652E0,-7.878368378E0
4.167158598E0,-1.252642632E0,-6.291328907E0,-8.223533630E0
4.177096776E0,-1.674377680E0,-6.205187321E0,-8.175676346E0
4.187005213E0,-1.999801517E0,-6.157330990E0,-8.429315567E0
4.196943390E0,-2.018944025E0,-6.171687603E0,-8.371888161E0
4.206881567E0,-1.894517303E0,-6.114260197E0,-8.002795219E0
4.216848130E0,-1.650449395E0,-6.133402824E0,-7.701299667E0
4.226786307E0,-1.645663738E0,-6.368497372E0,-7.202994347E0
4.236724484E0,-1.444068432E0,-6.650850773E0,-6.373881340E0
4.246657348E0,-9.601200819E-1,-6.962515831E0,-6.340381622E0
4.256595473E0,-6.107679605E-1,-7.211369038E0,-6.546762943E0
4.266533651E0,-3.230310678E-1,-7.546962738E0,-6.613761902E0
4.276479848E0,-5.982056633E-2,-7.929814339E0,-6.321238995E0
4.286418026E0,-1.363908947E-1,-7.948956966E0,-6.292525291E0
4.296356203E0,-2.416750938E-1,-8.026124954E0,-6.129813194E0
4.306295786E0,-1.794617027E-1,-7.877171993E0,-5.832505226E0
4.316233963E0,-2.560320199E-1,-7.661818027E0,-5.813362598E0
4.326172140E0,-2.033899277E-1,-7.623532772E0,-5.775077343E0
4.336108130E0,-3.613162339E-1,-7.618747234E0,-5.027918816E0
4.346046307E0,-5.485545993E-1,-7.647460938E0,-4.668396950E0
4.355984484E0,-4.857429862E-1,-7.858029366E0,-4.295116425E0
4.365917088E0,-2.799602449E-1,-8.121838570E0,-3.854238987E0
4.375855265E0,-2.081755698E-1,-8.035696983E0,-3.317648649E0
4.385793442E0,-1.938186288E-1,-8.121838570E0,-3.049054146E0
4.395716151E0,-1.794617027E-1,-8.174480438E0,-3.887738705E0
4.405654328E0,-2.225325108E-1,-8.097909927E0,-3.336791277E0
4.415592453E0,-2.368894368E-1,-7.767102242E0,-2.450250387E0
4.425549380E0,-1.411765367E-1,-7.527820110E0,-2.234896421E0
4.435487505E0,2.087737769E-1,-7.345367432E0,-1.587637782E0
4.445425734E0,4.049852192E-1,-7.015157700E0,-1.880160451E0
4.455379484E0,6.161518097E-1,-6.588637352E0,-2.095514536E0
4.465317661E0,6.352944374E-1,-6.147759438E0,-2.239681959E0
4.475255838E0,3.762713671E-1,-5.827121258E0,-1.928016901E0
4.485172869E0,3.236292601E-1,-5.615954876E0,-1.501496196E0
4.495110994E0,5.294120312E-1,-5.534598827E0,-1.247856975E0
4.505049171E0,1.133599758E0,-5.831906796E0,-1.324427366E0
4.514995942E0,1.492523074E0,-6.229115486E0,-1.999801517E0
4.524934119E0,1.751546144E0,-6.780063152E0,-2.455035925E0
4.534872296E0,2.038684845E0,-7.441678524E0,-2.723630428E0
4.544789328E0,2.259422779E0,-7.819744587E0,-3.144767046E0
4.554727505E0,2.379063845E0,-8.064410210E0,-3.595216036E0
4.564665734E0,2.541775942E0,-8.696713448E0,-3.676572084E0
4.574601723E0,2.484348059E0,-9.515657425E0,-3.226721287E0
4.584539848E0,2.627917528E0,-1.048355389E1,-3.001197815E0
4.594478026E0,3.059223652E0,-1.130309582E1,-2.900699139E0
4.604434692E0,3.318246841E0,-1.171525955E1,-2.747558594E0
4.614372869E0,3.140579700E0,-1.151366425E1,-2.550748825E0
4.624311046E0,2.724228621E0,-1.119781208E1,-2.311466694E0
4.634245369E0,2.139183521E0,-1.111585712E1,-1.870589137E0
4.644183598E0,1.392024517E0,-1.094836044E1,-1.491924882E0
4.654121776E0,8.985049129E-1,-1.077607632E1,-1.113858938E0
4.664067140E0,4.528416991E-1,-1.054576778E1,-6.825526357E-1
4.674005317E0,1.944168359E-1,-1.016291618E1,-5.144568682E-1
4.683943546E0,-1.220339537E-1,-9.769894600E0,-7.112665176E-1
4.693863859E0,-4.331009090E-1,-9.530014038E0,-1.166501045E0
4.703802036E0,-8.931210637E-1,-9.266803741E0,-1.400997639E0
4.713740213E0,-1.152144074E0,-9.199805260E0,-1.688734531E0
4.723684848E0,-1.276570916E0,-9.104091644E0,-1.578066587E0
4.733623026E0,-1.305284739E0,-9.080163956E0,-1.410568953E0
4.743561255E0,-1.094716311E0,-9.151947975E0,-1.400997639E0
4.753482869E0,-5.964110494E-1,-9.410373688E0,-1.530210137E0
4.763421098E0,-8.853443712E-2,-9.789037704E0,-1.760519266E0
4.773359276E0,3.667000830E-1,-1.014377308E1,-1.995015860E0
4.783327557E0,7.022934556E-1,-1.025384331E1,-2.182254314E0
4.793265786E0,9.176474810E-1,-1.015334511E1,-2.263610125E0
4.803203963E0,1.080957651E0,-9.937392235E0,-2.263610125E0
4.813144171E0,1.128814101E0,-9.817750931E0,-2.225325108E0
4.823082348E0,1.056431174E0,-9.846465111E0,-2.163111687E0
4.833020578E0,9.224331379E-1,-9.903892517E0,-2.134397745E0
4.842928286E0,7.262216806E-1,-1.013420200E1,-1.995015860E0
4.852866463E0,5.054838061E-1,-1.038305569E1,-1.789233088E0
4.862804640E0,3.954139352E-1,-1.059362411E1,-1.631306887E0
4.872759536E0,4.959124923E-1,-1.072821999E1,-1.607378602E0
4.882697713E0,5.922235847E-1,-1.066122150E1,-1.770090580E0
4.892635942E0,6.975077987E-1,-1.052183914E1,-2.038086653E0
4.902555057E0,8.075776696E-1,-1.012941647E1,-2.249253273E0
4.912493286E0,8.171489239E-1,-9.655039787E0,-2.469393015E0
4.922431463E0,8.745766878E-1,-9.223732948E0,-2.603390932E0
4.932397036E0,8.889335990E-1,-8.711071014E0,-2.450250387E0
4.942335265E0,9.367900491E-1,-8.088338852E0,-2.574677229E0
4.952273442E0,1.071386337E0,-7.704888821E0,-2.704487801E0
4.962212609E0,1.037288666E0,-7.345367432E0,-2.301895380E0
4.972150838E0,9.511470199E-1,-6.933801651E0,-1.827518344E0
4.982089015E0,1.506880045E0,-6.976872444E0,-1.841875196E0
4.992006828E0,2.273779631E0,-7.546962738E0,-2.225325108E0
5.001945005E0,2.460419893E0,-8.078767776E0,-2.493321180E0
5.011883234E0,2.000399828E0,-8.150551796E0,-2.105085611E0
5.021814223E0,1.895115495E0,-8.351549149E0,-1.703091502E0
5.031752505E0,1.698904037E0,-8.653642654E0,-1.765304923E0
5.041690682E0,6.448656917E-1,-8.318049431E0,-1.913659930E0
5.051646255E0,-2.656033039E-1,-7.925028801E0,-2.014158487E0
5.061584484E0,-9.266205430E-1,-8.011768341E0,-1.587637782E0
5.071522661E0,-1.683948994E0,-7.963912010E0,-8.213363886E-1
5.081459171E0,-1.803590059E0,-7.556533813E0,-6.921239495E-1
5.091397348E0,-7.304090858E-1,-7.149155617E0,-1.990230203E0
5.101335578E0,6.017948985E-1,-7.211369038E0,-3.854238987E0
5.111267348E0,1.444666624E0,-7.920242786E0,-5.420939922E0
5.121205473E0,1.291526079E0,-8.634500504E0,-6.048457623E0
5.131143598E0,5.635097623E-1,-8.935996056E0,-5.257629395E0
5.141072661E0,1.704886109E-1,-8.959924698E0,-3.878167391E0
5.151010838E0,-3.326023519E-1,-8.888139725E0,-2.704487801E0
5.160949015E0,-1.472782373E0,-8.601000786E0,-1.688734531E0
5.170892296E0,-2.282752752E0,-8.097909927E0,-1.515853167E0
5.180830421E0,-1.180858016E0,-7.776673794E0,-3.504288673E0
5.190768598E0,1.008574724E0,-8.054839134E0,-7.217351437E0
5.200722401E0,2.173281193E0,-8.711071014E0,-8.371888161E0
5.210660578E0,1.363310695E0,-8.983852386E0,-7.078567505E0
5.220598651E0,-3.278166950E-1,-8.868997574E0,-5.526223660E0
5.230528755E0,-1.616949916E0,-8.442476273E0,-4.716253281E0
5.240466880E0,-1.161715388E0,-7.786244869E0,-5.051846981E0
5.250405005E0,-1.459621787E-1,-7.331010342E0,-5.914459229E0
5.260370786E0,-2.081755698E-1,-7.029514790E0,-5.832505226E0
5.270308963E0,-9.744769931E-1,-6.905087948E0,-5.540580750E0
5.280247088E0,-1.645663738E0,-7.134799004E0,-6.144170284E0
5.290145369E0,-1.060618639E0,-7.421937466E0,-6.752545357E0
5.300083494E0,7.477571070E-2,-7.527820110E0,-8.285746574E0
5.310021619E0,3.619144261E-1,-7.728816986E0,-1.001037312E1
5.319971984E0,-1.124626622E-1,-7.805387497E0,-8.999405861E0
5.329910161E0,-1.319641709E0,-7.407580853E0,-7.365706444E0
5.339848286E0,-2.714059114E0,-6.617351055E0,-7.940581799E0
5.349772609E0,-3.528217077E0,-5.927619934E0,-7.691728592E0
5.359710786E0,-3.288934708E0,-5.352744102E0,-6.934400082E0
5.369648859E0,-3.336791277E0,-5.347958565E0,-7.336992264E0
5.379606880E0,-3.327219963E0,-5.343173027E0,-7.576872826E0
5.389545005E0,-2.814557552E0,-4.892724037E0,-8.084749222E0
5.399483130E0,-2.321038008E0,-4.356133461E0,-8.477172852E0
5.409438182E0,-1.956730723E0,-4.236492634E0,-8.568697929E0
5.419376307E0,-1.075573802E0,-4.159324169E0,-8.554341316E0
5.429314432E0,-1.674975827E-2,-4.341776848E0,-9.694520950E0
5.439233234E0,4.480560422E-1,-4.456632137E0,-9.694520950E0
5.449171359E0,3.379862010E-1,-4.734199524E0,-8.712266922E0
5.459109536E0,2.470589429E-1,-4.998008251E0,-7.816154957E0
5.469046463E0,-1.124626622E-1,-4.820939541E0,-7.686942577E0
5.478984640E0,-1.314856052E0,-4.317848682E0,-8.870193481E0
5.488922713E0,-2.574677229E0,-4.010969162E0,-1.001515961E1
5.498872713E0,-3.523431301E0,-3.570091486E0,-9.368498802E0
5.508810890E0,-3.504288673E0,-3.445664644E0,-8.903693199E0
5.518749015E0,-2.838485956E0,-3.311666489E0,-8.414958954E0
5.528685682E0,-2.225325108E0,-2.990430117E0,-1.059003448E1
5.538623807E0,-1.861017823E0,-3.052643538E0,-1.208016491E1
5.548561932E0,-1.563709617E0,-3.474378586E0,-1.025025368E1
5.558479223E0,-1.329213023E0,-3.416950703E0,-8.932407379E0
5.568417401E0,-1.439282775E0,-2.660220623E0,-7.739584923E0
5.578355526E0,-8.165507317E-1,-1.577468276E0,-7.336992264E0
5.588294796E0,-3.110669367E-2,-1.146162033E0,-9.885947227E0
5.598232921E0,4.289134443E-1,-1.548754454E0,-9.952945709E0
5.608171098E0,1.082752272E-1,-1.701895118E0,-9.143573761E0
5.618145473E0,-6.921239495E-1,-1.639681697E0,-8.760123253E0
5.628083755E0,-1.511067510E0,-1.701895118E0,-8.304888725E0
5.638021984E0,-2.402393818E0,-1.634896040E0,-9.023334503E0
5.647938963E0,-2.958127022E0,-1.466800332E0,-1.127079296E1
5.657877192E0,-1.851446509E0,-1.404586911E0,-1.028853893E1
5.667815473E0,-1.142572761E0,-8.775677085E-1,-9.382855415E0
5.677760213E0,-1.228714466E0,-6.813562512E-1,-9.785448074E0
5.687698494E0,-8.021938205E-1,-1.606182218E0,-9.656235695E0
5.697636723E0,-8.021938205E-1,-1.792822361E0,-1.050389290E1
5.707573598E0,-8.835497499E-1,-1.936391711E0,-1.013958549E1
5.717511880E0,-7.926225066E-1,-1.495514154E0,-1.022632599E1
5.727450109E0,-1.094716311E0,-7.148557901E-1,-1.055653572E1
5.737403859E0,-6.729813814E-1,-6.819544733E-2,-9.421140671E0
5.747342140E0,-2.225325108E-1,8.805587292E-1,-9.732806206E0
5.757280421E0,6.640082598E-1,7.944171429E-1,-1.128036404E1
5.767185265E0,5.341976285E-1,-4.905286431E-2,-1.004865837E1
5.777123494E0,-7.064808607E-1,-1.112662554E-1,-9.914660454E0
5.787061776E0,-1.372283816E0,8.554340899E-2,-1.225723362E1
5.797023390E0,-6.873382926E-1,3.056831062E-1,-1.177866936E1
5.806961671E0,-5.485545993E-1,9.284151793E-1,-1.202752304E1
5.816899901E0,-5.916253924E-1,1.235294700E0,-1.258325577E1
5.826804015E0,-9.332008660E-2,1.460219979E0,-1.120319557E1
5.836742296E0,-5.982056633E-2,1.704886079E0,-1.145743275E1
5.846680578E0,5.084748194E-2,1.704886079E0,-1.333998585E1
5.856645526E0,2.135594189E-1,1.872383714E0,-1.293320656E1
5.866583807E0,-1.196411345E-2,1.905883193E0,-1.226680565E1
5.876522036E0,-1.651047617E-1,1.714457393E0,-1.369472218E1
5.886441151E0,-3.589234129E-2,1.814955950E0,-1.406381512E1
5.896379484E0,-1.124626622E-1,2.073380709E0,-1.358465195E1
5.906317713E0,1.513460279E-1,2.068595171E0,-1.371865082E1
5.916281098E0,2.470589429E-1,2.154736757E0,-1.350808239E1
5.926219328E0,7.776673418E-3,2.049452543E0,-1.371386433E1
5.936157609E0,2.805584669E-1,1.948953986E0,-1.368993664E1
5.946063130E0,5.006981492E-1,1.858026743E0,-1.310548973E1
5.956001411E0,4.145565331E-1,1.603789330E0,-1.320120239E1
5.965939692E0,1.944168359E-1,1.608574986E0,-1.307199001E1
5.975895109E0,1.734796353E-2,1.474576950E0,-1.258804131E1
5.985833338E0,1.417747438E-1,1.249651670E0,-1.256889915E1
5.995771619E0,4.815555513E-1,9.332008362E-1,-1.271725368E1
6.005701307E0,4.911268353E-1,8.709874153E-1,-1.201795197E1
6.015639536E0,4.145565331E-1,9.714859724E-1,-1.134257793E1
6.025577817E0,3.810569942E-1,8.087740541E-1,-1.149093246E1
6.035531307E0,2.279163599E-1,6.795616150E-1,-1.145743275E1
6.045469588E0,6.520441920E-2,7.465606928E-1,-1.137607670E1
6.055407869E0,-8.853443712E-2,8.039883971E-1,-1.140957642E1
6.065350942E0,-3.182454109E-1,7.034898400E-1,-1.097348499E1
6.075289223E0,-5.437689424E-1,5.880361795E-1,-1.073420238E1
6.085227505E0,-5.820540786E-1,2.530409992E-1,-1.076770210E1
6.095140630E0,-5.437689424E-1,1.621137410E-1,-1.052303600E1
6.105078911E0,-3.900300860E-1,1.429711580E-1,-1.039382362E1
6.115017192E0,-3.134597540E-1,1.525424421E-1,-9.919445992E0
6.124963546E0,-5.629115105E-1,1.142572835E-1,-9.857233047E0
6.134901671E0,-6.825526357E-1,-6.819544733E-2,-1.000558758E1
6.144839796E0,-7.399803996E-1,-2.691925466E-1,-1.027896786E1
6.154780161E0,-7.351947427E-1,-4.755735099E-1,-1.015394306E1
6.164718286E0,-6.490531564E-1,-6.382854581E-1,-1.003430176E1
6.174656411E0,-4.905286431E-1,-7.866404653E-1,-9.862018585E0
6.184610890E0,-3.756731451E-1,-9.158528447E-1,-9.526425362E0
6.194549015E0,-4.570291340E-1,-1.055234790E0,-9.694520950E0
6.204487192E0,-6.969096065E-1,-1.280160069E0,-1.002473068E1
6.214413442E0,-9.361918569E-1,-1.490728498E0,-9.919445992E0
6.224351567E0,-9.553344250E-1,-1.859821439E0,-9.818947792E0
6.234289692E0,-1.041476011E0,-2.090130568E0,-9.943374634E0
6.244221098E0,-1.324427366E0,-2.291127682E0,-9.656235695E0
6.254159223E0,-1.534995675E0,-2.516052961E0,-9.871589661E0
6.264097348E0,-1.506281853E0,-2.703291416E0,-9.914660454E0
6.274025057E0,-1.362712502E0,-2.976073265E0,-9.373284340E0
6.283963234E0,-9.744769931E-1,-3.306880951E0,-9.483354568E0
6.293901359E0,-7.256234884E-1,-3.483949661E0,-9.852447510E0
6.303865942E0,-6.873382926E-1,-3.536591768E0,-9.401998520E0
6.313804067E0,-4.905286431E-1,-3.493520975E0,-9.675378799E0
6.323742244E0,-7.064808607E-1,-3.622733593E0,-9.646664619E0
6.333680734E0,-1.133001566E0,-3.814757586E0,-9.124430656E0
6.343618859E0,-1.290927768E0,-4.034897327E0,-9.483354568E0
6.353556984E0,-1.372283816E0,-4.375276089E0,-9.320642471E0
6.363488234E0,-1.233500123E0,-4.643272400E0,-9.172286987E0
6.373426359E0,-1.041476011E0,-4.868795872E0,-9.229715347E0
6.383364484E0,-1.080359459E0,-5.093721390E0,-9.114859581E0
6.393291671E0,-1.166501045E0,-5.295316696E0,-8.989834785E0
6.403229796E0,-1.070788145E0,-5.563312531E0,-8.659625053E0
6.413167921E0,-8.117650747E-1,-5.870192051E0,-8.252246857E0
6.423118911E0,-5.240281820E-1,-6.171687603E0,-8.324031830E0
6.433057036E0,-4.953143001E-1,-6.334399700E0,-8.424530029E0
6.442995213E0,-5.581258535E-1,-6.435496330E0,-8.602197647E0
6.452923078E0,-4.761717021E-1,-6.473781586E0,-8.290532112E0
6.462861203E0,-5.581258535E-1,-6.502495766E0,-7.969295979E0
6.472799328E0,-8.356932998E-1,-6.545566559E0,-7.548159122E0
6.482749119E0,-9.314061999E-1,-6.622136593E0,-7.260422230E0
6.492687244E0,-8.691928387E-1,-6.713063717E0,-7.279564857E0
6.502625369E0,-8.644071817E-1,-6.751348972E0,-6.968497753E0
6.512562140E0,-7.639086246E-1,-6.870990276E0,-6.757331371E0
6.522500265E0,-6.011967063E-1,-6.914659023E0,-6.766902447E0
6.532438390E0,-6.059823632E-1,-7.082156658E0,-6.608976364E0
6.542369380E0,-5.288137794E-1,-7.383652687E0,-6.594619274E0
6.552307505E0,-1.651047617E-1,-7.642675400E0,-5.928816319E0
6.562245630E0,1.274178028E-1,-7.676175117E0,-5.324628353E0
6.572179328E0,3.714857101E-1,-7.613961697E0,-6.048457623E0
6.582117453E0,2.662015259E-1,-7.499105930E0,-6.642475605E0
6.592055630E0,-1.842473447E-1,-7.378866673E0,-6.494120598E0
6.601980317E0,-1.794617027E-1,-7.197012424E0,-6.139384747E0
6.611918494E0,-3.373879790E-1,-6.856633186E0,-5.636293888E0
6.621856619E0,-3.708875179E-1,-6.914659023E0,-5.190630436E0
6.631799432E0,-1.890329868E-1,-7.110870838E0,-4.975276470E0
6.641737505E0,1.178465188E-1,-7.345367432E0,-5.008776188E0
6.651675630E0,-7.178467698E-3,-7.743174076E0,-4.697110653E0
6.661608911E0,-2.895315289E-1,-8.107481003E0,-4.400400639E0
6.671547036E0,-4.474578202E-1,-8.260622025E0,-3.959523201E0
6.681485109E0,-3.134597540E-1,-8.543573380E0,-3.820739508E0
6.691440942E0,7.776673418E-3,-8.706285477E0,-3.609572887E0
6.701379067E0,3.188436031E-1,-8.682356834E0,-3.878167391E0
6.711317140E0,6.305087805E-1,-8.375477791E0,-3.729214191E0
6.721271255E0,9.559326172E-1,-8.107481003E0,-3.806382656E0
6.731209328E0,1.272383451E0,-8.016553879E0,-3.935595036E0
6.741147453E0,1.439880967E0,-8.059624672E0,-4.098307133E0
6.751061203E0,1.449452281E0,-8.002197266E0,-4.122235298E0
6.760999276E0,1.076171994E0,-8.026124954E0,-3.327219963E0
6.770937401E0,7.597211599E-1,-8.203194618E0,-2.617748022E0
6.780867140E0,7.070791125E-1,-8.672785759E0,-2.435893536E0
6.790805265E0,1.032503009E0,-9.214161873E0,-2.785843849E0
6.800743338E0,1.200598717E0,-9.779465675E0,-2.747558594E0
6.810698338E0,1.037288666E0,-1.010010433E1,-1.597807288E0
6.820636411E0,8.410771489E-1,-9.990034103E0,-7.543373108E-1
6.830574536E0,9.415757060E-1,-9.769894600E0,-8.117650747E-1
6.840525213E0,1.133599758E0,-9.381659508E0,-8.644071817E-1
6.850463286E0,8.362914920E-1,-8.720642090E0,-6.729813814E-1
6.860401411E0,6.640082598E-1,-7.891529083E0,-3.804588020E-1
6.870321098E0,6.161518097E-1,-7.345367432E0,-1.076770201E-1
6.880259171E0,6.783652306E-1,-6.962515831E0,-1.794617027E-1
6.890197296E0,7.501499057E-1,-6.195616245E0,-5.724828243E-1
6.900155890E0,9.702895880E-1,-5.692524910E0,-1.066002488E0
6.910093963E0,1.454237938E0,-5.611168861E0,-1.252642632E0
6.920032088E0,1.871187329E0,-5.855835438E0,-1.693520188E0
6.929945057E0,2.124826431E0,-6.440282345E0,-2.325823545E0
6.939883130E0,2.546561480E0,-7.436892986E0,-2.574677229E0
6.949821255E0,2.632703066E0,-8.184051514E0,-2.666202545E0
6.959773703E0,2.829512835E0,-9.204590797E0,-3.202793121E0
6.969711828E0,2.796013355E0,-1.024905777E1,-3.619144201E0
6.979649901E0,2.331207514E0,-1.112542915E1,-3.427718401E0
6.989595994E0,2.067398787E0,-1.207418346E1,-3.092125177E0
6.999534067E0,1.679761529E0,-1.274955750E1,-2.483749866E0
7.009472192E0,1.195813060E0,-1.287458229E1,-1.765304923E0
7.019402296E0,8.075776696E-1,-1.252463150E1,-1.444068432E0
7.029340369E0,3.332005441E-1,-1.192582798E1,-1.482353687E0
7.039278442E0,-1.842473447E-1,-1.128873920E1,-1.477568030E0
7.049214223E0,-4.809573591E-1,-1.080000496E1,-1.219143152E0
7.059152296E0,-7.734799385E-1,-1.051226807E1,-9.936196208E-1
7.069090369E0,-9.601200819E-1,-1.039262676E1,-8.931210637E-1
7.079018963E0,-7.686942816E-1,-1.027777100E1,-8.644071817E-1
7.088957088E0,-4.666004181E-1,-1.006181908E1,-8.404789567E-1
7.098895161E0,-4.953143001E-1,-9.707681656E0,-8.500502706E-1
7.108857088E0,-7.160521746E-1,-9.252447128E0,-1.080359459E0
7.118795161E0,-6.969096065E-1,-9.084949493E0,-1.200000525E0
7.128733286E0,-4.570291340E-1,-9.319445610E0,-1.209571838E0
7.138643286E0,-3.421736360E-1,-9.448657990E0,-1.305284739E0
7.148581411E0,5.084748194E-2,-9.496515274E0,-1.511067510E0
7.158519536E0,5.778666735E-1,-9.702896118E0,-1.626521230E0
7.168483026E0,1.046859860E0,-9.956535339E0,-1.645663738E0
7.178421098E0,1.473380566E0,-1.016291618E1,-1.544566989E0
7.188359223E0,1.761117458E0,-1.032084274E1,-1.377069473E0
7.198304744E0,1.832902193E0,-1.041655540E1,-1.171286702E0
7.208242869E0,1.775474429E0,-1.031605625E1,-1.007976532E0
7.218180942E0,1.602592945E0,-1.007617569E1,-9.457631707E-1
7.228096984E0,1.334596872E0,-9.903892517E0,-7.447660565E-1
7.238035057E0,1.143171072E0,-9.793823242E0,-6.442674994E-1
7.247973182E0,1.032503009E0,-9.698110580E0,-7.495517135E-1
7.257935057E0,9.032905698E-1,-9.655039787E0,-8.452646136E-1
7.267873130E0,7.692924738E-1,-9.645467758E0,-9.888339639E-1
7.277811255E0,7.070791125E-1,-9.611968994E0,-1.281356573E0
7.287738442E0,8.075776696E-1,-9.607182503E0,-1.636092424E0
7.297676515E0,8.985049129E-1,-9.659825325E0,-1.650449395E0
7.307614640E0,9.128618240E-1,-9.717252731E0,-1.429711580E0
7.317543911E0,1.051645517E0,-9.583254814E0,-1.568495274E0
7.327482036E0,1.186241865E0,-9.161520004E0,-1.990230203E0
7.337420109E0,1.363310695E0,-8.581858635E0,-2.167897224E0
7.347381255E0,1.641476393E0,-8.198408127E0,-2.210968018E0
7.357319380E0,1.933400750E0,-8.002197266E0,-2.263610125E0
7.367257453E0,2.033899307E0,-7.661818027E0,-2.177468538E0
7.377185057E0,1.942971945E0,-7.086942673E0,-2.139183521E0
7.387123130E0,1.861616015E0,-6.569494724E0,-2.636890650E0
7.397061255E0,1.722832322E0,-6.281757832E0,-2.550748825E0
7.406990578E0,1.770688772E0,-6.248258114E0,-1.520638824E0
7.416928651E0,2.163709879E0,-6.449853420E0,-1.089930773E0
7.426866776E0,2.786442041E0,-7.000801086E0,-1.827518344E0
7.436815786E0,2.949153900E0,-7.704888821E0,-2.478964329E0
7.446753911E0,2.062613010E0,-7.877171993E0,-2.517249346E0
7.456691984E0,5.395814776E-1,-7.728816986E0,-2.843271494E0
7.466601046E0,-8.931210637E-1,-7.604390144E0,-2.848057270E0
7.476539171E0,-2.014158487E0,-7.475177765E0,-1.515853167E0
7.486477296E0,-2.469393015E0,-7.479963779E0,-2.177468538E-1
7.496417088E0,-2.277967215E0,-7.896314621E0,-9.792626500E-1
7.506355213E0,-1.257428288E0,-8.988637924E0,-2.857628345E0
7.516293338E0,-1.555334777E-1,-9.774680138E0,-3.466003656E0
7.526258703E0,4.767699242E-1,-9.520442963E0,-4.309473515E0
7.536196776E0,7.453642488E-1,-8.514859200E0,-4.342973232E0
7.546134901E0,8.745766878E-1,-7.503891945E0,-4.476971149E0
7.556060421E0,9.894321561E-1,-7.225726128E0,-6.259026051E0
7.565998546E0,5.730810165E-1,-7.532605648E0,-6.412764549E0
7.575936671E0,-3.708875179E-1,-7.738388538E0,-6.273382664E0
7.585856359E0,-1.712662816E0,-7.944170952E0,-6.451049805E0
7.595794484E0,-1.908874273E0,-8.222336769E0,-5.957530022E0
7.605732609E0,-5.000999570E-1,-8.825926781E0,-5.324628353E0
7.615702765E0,4.001995921E-1,-9.142376900E0,-4.520041943E0
7.625640838E0,-3.804588020E-1,-8.351549149E0,-5.578866005E0
7.635578963E0,-7.399803996E-1,-7.484749317E0,-6.427121639E0
7.645525161E0,-2.177468538E-1,-7.197012424E0,-5.904888153E0
7.655463390E0,1.657029688E-1,-7.201797962E0,-6.910471916E0
7.665401671E0,2.614158690E-1,-7.623532772E0,-8.261817932E0
7.675332765E0,-7.417750359E-2,-7.920242786E0,-7.102495670E0
7.685271046E0,-6.873382926E-1,-7.700103283E0,-6.910471916E0
7.695209276E0,-1.563709617E0,-7.211369038E0,-8.381459236E0
7.705146359E0,-1.990230203E0,-6.713063717E0,-8.697910309E0
7.715084588E0,-1.601994753E0,-6.435496330E0,-8.391031265E0
7.725022869E0,-1.391426325E0,-6.233901024E0,-8.760123253E0
7.734956984E0,-2.042872429E0,-6.233901024E0,-8.448458672E0
7.744895213E0,-2.757129908E0,-6.564708710E0,-8.166105270E0
7.754833494E0,-2.819343328E0,-6.905087948E0,-7.360920429E0
7.764756984E0,-2.191825628E0,-6.646064758E0,-8.280961037E0
7.774695213E0,-1.534995675E0,-6.276971817E0,-9.114859581E0
7.784633442E0,-1.290927768E0,-6.080760479E0,-8.505886078E0
7.794590369E0,-1.357926846E0,-5.572884083E0,-8.400602341E0
7.804528651E0,-8.787640929E-1,-5.041079044E0,-8.578269005E0
7.814466880E0,-2.656033039E-1,-4.447061062E0,-8.151748657E0
7.824382661E0,2.087737769E-1,-3.833899975E0,-8.874979019E0
7.834320942E0,-2.632104978E-2,-3.373879910E0,-9.675378799E0
7.844259223E0,7.776673418E-3,-3.479164124E0,-1.031246758E1
7.854220786E0,-4.905286431E-1,-4.106681824E0,-9.306285858E0
7.864159015E0,-1.185643673E0,-4.552345276E0,-8.592626572E0
7.874097296E0,-1.563709617E0,-4.408775806E0,-1.043210888E1
7.884013338E0,-1.707877159E0,-4.351347923E0,-1.082034397E1
7.893951567E0,-1.319641709E0,-4.456632137E0,-1.021196842E1
7.903889796E0,-1.582852125E0,-4.121038914E0,-9.651450157E0
7.913850630E0,-2.282752752E0,-3.608376503E0,-8.496315002E0
7.923788911E0,-2.244467735E0,-3.445664644E0,-9.032905579E0
7.933727140E0,-1.391426325E0,-3.790829182E0,-9.651450157E0
7.943635578E0,-6.969096065E-1,-3.814757586E0,-9.732806206E0
7.953573859E0,-8.691928387E-1,-3.124428272E0,-9.799804688E0
7.963512140E0,-8.213363886E-1,-2.429911375E0,-9.334999084E0
7.973457244E0,5.084748194E-2,-2.104487419E0,-8.731410027E0
7.983395473E0,6.520441920E-2,-1.572682738E0,-9.684949875E0
7.993333703E0,-9.810572863E-2,-1.385444283E0,-8.602197647E0
8.003273598E0,-9.332008660E-2,-1.692323804E0,-8.127820015E0
8.013211828E0,-3.230310678E-1,-2.343769789E0,-9.723235130E0
8.023150057E0,-1.424925923E0,-2.722434044E0,-1.077727318E1
8.033092348E0,-2.373680115E0,-2.799004316E0,-1.078205872E1
8.043030578E0,-2.052443504E0,-2.631506681E0,-1.018325520E1
8.052968859E0,-6.394818425E-1,-2.008176327E0,-1.047996521E1
8.062888390E0,7.645068169E-1,-8.871390224E-1,-1.087298584E1
8.072826671E0,9.463613629E-1,-2.835494876E-1,-1.024546814E1
8.082764901E0,-2.632104978E-2,-7.770691514E-1,-1.039382362E1
8.092726984E0,-6.011967063E-1,-1.529013634E0,-1.083470058E1
8.102665213E0,-5.676971674E-1,-2.085345030E0,-1.027896786E1
8.112603494E0,1.944168359E-1,-1.730608940E0,-9.924231529E0
8.122523546E0,4.097708762E-1,-6.239284873E-1,-1.159621716E1
8.132461828E0,-4.522434771E-1,-9.212367237E-2,-1.182174015E1
8.142400057E0,-4.378865361E-1,-1.686939895E-1,-1.034118080E1
8.152343651E0,-6.777670383E-1,-2.835494876E-1,-1.159143066E1
8.162281776E0,-8.644071817E-1,-6.861419082E-1,-1.284227943E1
8.172219901E0,-5.916253924E-1,-8.488538265E-1,-1.133300591E1
8.182182713E0,-7.782655358E-1,-2.117647976E-1,-1.155314636E1
8.192120838E0,-6.634100676E-1,1.429711580E-1,-1.247797203E1
8.202058963E0,-3.326023519E-1,1.956132501E-1,-1.210887909E1
8.211977817E0,1.752742529E-1,-9.212367237E-2,-1.181216908E1
8.221915942E0,-1.890329868E-1,2.865405083E-1,-1.257368469E1
8.231854067E0,-8.356932998E-1,8.805587292E-1,-1.240618706E1
8.241780109E0,-1.113858938E0,8.949156404E-1,-1.291884899E1
8.251718234E0,-5.964110494E-1,4.253242314E-1,-1.324905872E1
8.261656359E0,-1.028913707E-1,4.013960063E-1,-1.268854046E1
8.271611411E0,3.619144261E-1,2.961117923E-1,-1.251147175E1
8.281549536E0,7.549355626E-1,2.291127741E-1,-1.247318649E1
8.291487661E0,5.730810165E-1,5.880361795E-1,-1.225244808E1
8.301421046E0,8.434699476E-2,7.513462901E-1,-1.231047440E1
8.311359119E0,-1.890329868E-1,5.928218365E-1,-1.194138145E1
8.321297296E0,-3.661018610E-1,2.913261652E-1,-1.230090332E1
8.331234901E0,-2.751746178E-1,-7.776673883E-2,-1.257368469E1
8.341173026E0,5.563312769E-2,-1.196411322E-3,-1.176431274E1
8.351111151E0,3.092723191E-1,2.273181453E-2,-1.145264721E1
8.361054171E0,1.561316848E-1,-1.543370634E-1,-1.151964664E1
8.370992296E0,1.322034448E-1,-2.404786795E-1,-1.100698376E1
8.380930421E0,2.213360928E-2,-2.739782035E-1,-1.120319557E1
8.390867505E0,-2.608176768E-1,-2.739782035E-1,-1.130429268E1
8.400805630E0,-3.278166950E-1,-3.026920557E-1,-1.075334454E1
8.410743755E0,-2.416750938E-1,-4.510470629E-1,-1.091605663E1
8.420667973E0,-3.469592929E-1,-4.947160780E-1,-1.105005455E1
8.430606151E0,-4.522434771E-1,-5.330012441E-1,-1.077248764E1
8.440544223E0,-4.713860750E-1,-4.606183469E-1,-1.040339470E1
8.450501984E0,-4.666004181E-1,-4.803591371E-1,-1.070548820E1
8.460440109E0,-8.500502706E-1,-5.617151260E-1,-1.089212894E1
8.470378234E0,-1.070788145E0,-6.143572330E-1,-1.091127110E1
8.480296932E0,-8.739784956E-1,-8.727820516E-1,-1.065224838E1
8.490235005E0,-4.953143001E-1,-1.208375454E0,-9.962516785E0
8.500173130E0,-1.316052526E-1,-1.548754454E0,-1.044167995E1
8.510137348E0,3.170489892E-2,-1.792822361E0,-1.062353420E1
8.520075473E0,8.913264424E-2,-1.989033818E0,-1.008215809E1
8.530013598E0,-5.982056633E-2,-2.032104731E0,-9.742377281E0
8.539935213E0,-2.225325108E-1,-2.166700840E0,-1.038425159E1
8.549873286E0,-5.581258535E-1,-2.343769789E0,-1.049432182E1
8.559811463E0,-7.974081635E-1,-2.482553482E0,-9.981659889E0
8.569736046E0,-9.696913958E-1,-2.559123755E0,-1.030768204E1
8.579674171E0,-1.104287624E0,-2.770290375E0,-1.067139053E1
8.589612296E0,-1.147358418E0,-3.100499868E0,-1.026939678E1
8.599559953E0,-1.060618639E0,-3.349951744E0,-9.574281693E0
8.609498130E0,-1.080359459E0,-3.589233875E0,-9.737591743E0
8.619436255E0,-1.080359459E0,-3.896113396E0,-9.795019150E0
8.629375942E0,-8.356932998E-1,-4.192823410E0,-9.766305923E0
8.639314067E0,-6.873382926E-1,-4.514060020E0,-9.795019150E0
8.649252192E0,-5.724828243E-1,-4.758726120E0,-9.502496719E0
8.659185473E0,-4.809573591E-1,-4.763511658E0,-9.172286987E0
8.669123598E0,-3.708875179E-1,-4.743771076E0,-9.641879082E0
8.679061723E0,-5.772684813E-1,-4.763511658E0,-9.627521515E0
8.689019953E0,-1.147358418E0,-4.705485821E0,-8.803194046E0
8.698958078E0,-1.281356573E0,-4.609772682E0,-8.731410027E0
8.708896151E0,-1.041476011E0,-4.542773724E0,-8.755337715E0
8.718845473E0,-9.840483069E-1,-4.748556614E0,-9.095717430E0
8.728783598E0,-1.171286702E0,-5.170291424E0,-8.836693764E0
8.738721671E0,-9.888339639E-1,-5.572884083E0,-8.204390526E0
8.748629015E0,-7.447660565E-1,-5.937191010E0,-8.075178146E0
8.758567140E0,-7.256234884E-1,-6.253043652E0,-7.816154957E0
8.768505265E0,-4.953143001E-1,-6.516852379E0,-7.639086246E0
8.778442661E0,-2.656033039E-1,-6.765706062E0,-7.921439171E0
8.788380838E0,-3.086741269E-1,-6.938587666E0,-8.209176064E0
8.798318911E0,-8.213363886E-1,-6.909873486E0,-7.035496712E0
8.808274484E0,-8.021938205E-1,-6.569494724E0,-6.330810547E0
8.818212557E0,-4.091726840E-1,-6.166902065E0,-7.490731239E0
8.828150682E0,-6.155536175E-1,-6.037689686E0,-7.849654675E0
8.838102505E0,-8.596215248E-1,-6.339185238E0,-7.040282249E0
8.848040630E0,-3.756731451E-1,-6.813562393E0,-6.494120598E0
8.857978755E0,-1.938186288E-1,-7.316653252E0,-6.407381058E0
8.867914223E0,-8.374879509E-2,-7.771887779E0,-6.129813194E0
8.877852348E0,-2.632104978E-2,-8.050053596E0,-5.660222054E0
8.887790421E0,1.130608693E-1,-8.274978638E0,-5.459224701E0
8.897709536E0,2.231307179E-1,-8.107481003E0,-5.454439163E0
8.907647661E0,-2.392822644E-3,-7.637889862E0,-5.281557560E0
8.917585734E0,-1.890329868E-1,-7.307082176E0,-5.166702271E0
8.927522869E0,-8.853443712E-2,-6.875775814E0,-4.778466702E0
8.937460942E0,-2.464607358E-1,-6.736992359E0,-4.596612453E0
8.947399067E0,-1.842473447E-1,-6.837490559E0,-4.744967461E0
8.957352192E0,2.691925503E-2,-7.043871880E0,-4.630111694E0
8.967290317E0,1.752742529E-1,-7.153941631E0,-4.141377926E0
8.977228390E0,1.609173268E-1,-7.168298244E0,-4.103092670E0
8.987159432E0,4.001995921E-1,-7.402794838E0,-4.625326157E0
8.997097557E0,8.650053740E-1,-7.546962738E0,-5.032704353E0
9.007035682E0,1.281954765E0,-7.704888821E0,-5.128417015E0
9.016983755E0,1.435095429E0,-7.953742504E0,-4.721039295E0
9.026921880E0,1.219741344E0,-8.174480438E0,-4.055236340E0
9.036859953E0,9.942178130E-1,-8.365905762E0,-3.561716557E0
9.046784432E0,8.267202377E-1,-8.505288124E0,-3.547359467E0
9.056722557E0,8.315058947E-1,-8.653642654E0,-3.576073408E0
9.066660682E0,7.980063558E-1,-8.648857117E0,-3.250649452E0
9.076588911E0,9.511470199E-1,-8.672785759E0,-3.504288673E0
9.086527088E0,1.296311617E0,-8.811569214E0,-3.911666870E0
9.096465161E0,1.272383451E0,-9.099306107E0,-3.700500250E0
9.106400994E0,9.224331379E-1,-9.195018768E0,-2.828914642E0
9.116339119E0,7.405785918E-1,-9.209376335E0,-2.071586132E0
9.126277296E0,7.262216806E-1,-9.214161873E0,-1.698305845E0
9.136244901E0,7.836494446E-1,-9.118449211E0,-1.827518344E0
9.146183026E0,1.008574724E0,-8.864211082E0,-2.076371908E0
9.156121098E0,9.224331379E-1,-8.567501068E0,-2.052443504E0
9.166037348E0,8.410771489E-1,-8.341978073E0,-2.215753794E0
9.175975473E0,7.836494446E-1,-8.241478920E0,-2.483749866E0
9.185913598E0,6.448656917E-1,-8.021339417E0,-2.464607239E0
9.195876723E0,4.959124923E-1,-7.786244869E0,-2.311466694E0
9.205814848E0,5.150550604E-1,-7.566105366E0,-2.254039049E0
9.215753026E0,6.305087805E-1,-7.609176159E0,-2.321038008E0
9.225668182E0,7.597211599E-1,-7.958528042E0,-2.622533560E0
9.235606307E0,1.008574724E0,-8.510073662E0,-2.938984394E0
9.245544484E0,8.554341197E-1,-8.768498421E0,-2.867199659E0
9.255479536E0,5.246263742E-1,-8.778069496E0,-2.589034081E0
9.265417713E0,6.065805554E-1,-8.883354187E0,-2.402393818E0
9.275355890E0,8.171489239E-1,-8.979066849E0,-2.109871387E0
9.285298442E0,1.080957651E0,-9.218947411E0,-1.741376638E0
9.295236567E0,1.401595831E0,-9.611968994E0,-1.640878081E0
9.305174692E0,1.646261930E0,-1.007139015E1,-1.491924882E0
9.315127765E0,1.928615093E0,-1.050748253E1,-1.472782373E0
9.325065942E0,1.971685886E0,-1.062233829E1,-1.472782373E0
9.335004067E0,1.751546144E0,-1.006181908E1,-1.362712502E0
9.344951932E0,1.583450437E0,-9.506086349E0,-1.051047325E0
9.354890057E0,1.617548108E0,-9.195018768E0,-7.064808607E-1
9.364828234E0,1.756331801E0,-9.166305542E0,-6.394818425E-1
9.374754223E0,1.832902193E0,-9.185447693E0,-6.681957245E-1
9.384692348E0,1.593021631E0,-9.161520004E0,-6.825526357E-1
9.394630526E0,1.530808330E0,-9.233304024E0,-5.246263742E-1
9.404561828E0,1.401595831E0,-9.305088997E0,-4.331009090E-1
9.414499953E0,1.061216831E0,-9.367302895E0,-5.048855543E-1
9.424438078E0,8.362914920E-1,-9.276374817E0,-7.208378315E-1
9.434392921E0,7.310073376E-1,-9.223732948E0,-8.452646136E-1
9.444331046E0,4.289134443E-1,-9.520442963E0,-1.262213945E0
9.454269223E0,4.336991012E-1,-9.846465111E0,-1.266999602E0
9.464175994E0,5.341976285E-1,-1.022991467E1,-1.066002488E0
9.474114171E0,5.826523304E-1,-1.082393360E1,-1.152144074E0
9.484052348E0,8.315058947E-1,-1.108714390E1,-1.219143152E0
9.493983546E0,1.128814101E0,-1.134616661E1,-1.305284739E0
9.503921723E0,1.353739381E0,-1.136530972E1,-1.573280931E0
9.513859848E0,1.377667665E0,-1.107757282E1,-1.640878081E0
9.523837661E0,1.377667665E0,-1.077129078E1,-1.645663738E0
9.533775786E0,1.430309772E0,-1.066122150E1,-1.703091502E0
9.543713911E0,1.281954765E0,-1.079043388E1,-1.765304923E0
9.553648494E0,1.003789067E0,-1.092921734E1,-1.770090580E0
9.563586619E0,8.123632669E-1,-1.091964626E1,-1.683948994E0
9.573524796E0,6.400800347E-1,-1.075214863E1,-1.549352646E0
9.583441828E0,5.246263742E-1,-1.049312592E1,-1.386640668E0
9.593379953E0,5.150550604E-1,-1.027777100E1,-1.204786181E0
9.603318130E0,5.443671346E-1,-1.002831936E1,-1.070788145E0
9.613273494E0,4.767699242E-1,-9.755537987E0,-1.017547846E0
9.623211619E0,4.145565331E-1,-9.659825325E0,-9.744769931E-1
9.633149796E0,4.336991012E-1,-9.755537987E0,-8.691928387E-1
9.643065265E0,5.102694035E-1,-9.860821724E0,-8.213363886E-1
9.653003390E0,5.587241054E-1,-9.827322960E0,-9.266205430E-1
9.662941515E0,6.257231236E-1,-9.779465675E0,-1.051047325E0
9.672888963E0,7.597211599E-1,-9.903892517E0,-1.123430252E0
9.682827140E0,9.080761671E-1,-1.005703354E1,-1.190429211E0
9.692765317E0,9.463613629E-1,-1.004267693E1,-1.228714466E0
9.702688390E0,8.841479421E-1,-9.827322960E0,-1.204786181E0
9.712626567E0,8.554341197E-1,-9.506086349E0,-1.257428288E0
9.722564744E0,9.750752449E-1,-9.295517921E0,-1.290927768E0
9.732531046E0,1.056431174E0,-9.156734467E0,-1.156929731E0
9.742469223E0,9.846464992E-1,-8.931210518E0,-9.696913958E-1
9.752407401E0,9.559326172E-1,-8.648857117E0,-1.007976532E0
9.762333390E0,1.085743308E0,-8.447261810E0,-1.185643673E0
9.772271567E0,1.205384374E0,-8.432905197E0,-1.357926846E0
9.782209744E0,1.387238979E0,-8.658429146E0,-1.310070395E0
9.792156098E0,1.641476393E0,-9.218947411E0,-1.405783296E0
9.802094276E0,1.785045743E0,-9.793823242E0,-1.415354609E0
9.812032453E0,1.756331801E0,-9.860821724E0,-1.133001566E0
9.821949901E0,1.871187329E0,-9.530014038E0,-8.500502706E-1
9.831888130E0,2.225923300E0,-8.931210518E0,-1.017547846E0
9.841826255E0,2.594418049E0,-8.155337334E0,-1.889731646E0
9.851771828E0,2.757728100E0,-7.527820110E0,-3.005983353E0
9.861710005E0,2.379063845E0,-7.130013466E0,-3.633501291E0
9.871648182E0,1.607976794E0,-7.029514790E0,-3.662214994E0
9.881581932E0,8.650053740E-1,-7.421937466E0,-3.485146284E0
9.891520161E0,4.671986103E-1,-7.992625713E0,-3.212364435E0
9.901458338E0,5.635097623E-1,-8.246265411E0,-2.790629387E0
9.911412036E0,1.152742267E0,-8.207980156E0,-2.455035925E0
9.921350213E0,1.880758643E0,-7.881958008E0,-1.865803480E0
9.931288390E0,2.312064886E0,-7.551748276E0,-1.669592023E0
9.941211046E0,2.264208317E0,-7.446464062E0,-2.555534601E0
9.951149223E0,1.732403636E0,-7.158727169E0,-3.547359467E0
9.961087401E0,5.826523304E-1,-6.300900459E0,-3.892524242E0
9.971030786E0,-5.096712112E-1,-5.127220631E0,-2.876770973E0
9.980968963E0,-7.686942816E-1,-4.063611031E0,-2.143969059E0
9.990907140E0,-4.067798331E-2,-4.006183147E0,-3.399004459E0
1.000084339E1,6.592226624E-1,-5.400600910E0,-4.975276470E0
1.001078157E1,-1.196411345E-2,-7.230511665E0,-4.932205677E0
1.002071974E1,-1.760519266E0,-8.849854469E0,-4.443471432E0
1.003066115E1,-3.279363394E0,-1.018205833E1,-3.882952929E0
1.004059933E1,-3.250649452E0,-1.133659554E1,-4.026522160E0
1.005053751E1,-7.830511928E-1,-1.191147137E1,-4.893920422E0
1.006047688E1,9.846464992E-1,-1.100578785E1,-6.177670002E0
1.007041501E1,2.566302419E-1,-9.161520004E0,-6.373881340E0
1.008035323E1,-1.099501967E0,-7.432106972E0,-4.692325115E0
1.009029724E1,-1.180858016E0,-6.300900459E0,-4.792823792E0
1.010023542E1,-8.979067206E-1,-5.970690727E0,-6.987640381E0
1.011017360E1,-9.984052777E-1,-6.128616810E0,-8.089534760E0
1.012012553E1,-1.113858938E0,-6.583851337E0,-7.413562775E0
1.013006370E1,-1.683948994E0,-7.130013466E0,-6.220740795E0
1.014000188E1,-2.512463808E0,-7.421937466E0,-6.604190350E0
1.014990948E1,-1.683948994E0,-7.451249599E0,-7.505088329E0
1.015984766E1,-9.810572863E-2,-7.220940590E0,-8.070392609E0
1.016978584E1,6.209374666E-1,-6.986443996E0,-8.645268440E0
1.017972730E1,2.566302419E-1,-6.972086906E0,-8.079963684E0
1.018966547E1,-2.129612118E-1,-7.086942673E0,-7.519444942E0
1.019960360E1,-3.708875179E-1,-7.383652687E0,-7.538587570E0
1.020954964E1,-2.943171859E-1,-7.700103283E0,-7.940581799E0
1.021948776E1,-2.033899277E-1,-7.633104324E0,-8.544171333E0
1.022942589E1,-3.756731451E-1,-7.542177200E0,-8.319246292E0
1.023935745E1,-2.895315289E-1,-7.149155617E0,-7.763513088E0
1.024929558E1,-1.890329868E-1,-6.310471535E0,-8.462815285E0
1.025923370E1,-6.681957245E-1,-5.697310925E0,-9.459425926E0
1.026918037E1,-9.840483069E-1,-5.505885124E0,-9.809376717E0
1.027911855E1,-8.309076428E-1,-5.501099110E0,-9.483354568E0
1.028905667E1,-4.809573591E-1,-5.596812248E0,-9.392427444E0
1.029898323E1,-7.304090858E-1,-5.548955917E0,-9.799804688E0
1.030892141E1,-1.147358418E0,-5.668596745E0,-9.751948357E0
1.031885954E1,-1.582852125E0,-5.654240131E0,-8.769695282E0
1.032881948E1,-1.616949916E0,-5.232504845E0,-7.720442295E0
1.033875761E1,-1.324427366E0,-4.700700283E0,-8.505886078E0
1.034869573E1,-1.185643673E0,-4.178466320E0,-8.908478737E0
1.035860870E1,-8.356932998E-1,-3.881756544E0,-9.540781975E0
1.036854688E1,-8.213363886E-1,-3.752544165E0,-9.229715347E0
1.037848500E1,-8.452646136E-1,-3.723830223E0,-9.157930374E0
1.038843907E1,-6.777670383E-1,-3.833899975E0,-1.029332447E1
1.039837719E1,-9.409775138E-1,-3.929612875E0,-9.421140671E0
1.040831532E1,-7.399803996E-1,-3.570091486E0,-1.029332447E1
1.041823938E1,-1.448854089E0,-3.014358282E0,-1.049432182E1
1.042817750E1,-1.573280931E0,-3.345165968E0,-9.804591179E0
1.043811563E1,-1.219143152E0,-3.814757586E0,-9.905089378E0
1.044807282E1,-1.362712502E0,-4.106681824E0,-1.016889763E1
1.045801094E1,-9.696913958E-1,-3.996612072E0,-9.593423843E0
1.046794907E1,-6.634100676E-1,-3.762115479E0,-8.836693764E0
1.047789844E1,2.805584669E-1,-3.512663603E0,-1.060439205E1
1.048783657E1,1.162313581E0,-3.220739365E0,-1.051346493E1
1.049777469E1,4.863412082E-1,-2.822932482E0,-1.026461124E1
1.050769313E1,-1.316052526E-1,-2.674577475E0,-1.086341476E1
1.051763126E1,-3.708875179E-1,-2.980858803E0,-1.025025368E1
1.052756943E1,2.470589429E-1,-3.133999348E0,-9.574281693E0
1.053751334E1,2.805584669E-1,-3.148954630E0,-1.022632599E1
1.054745146E1,-1.028913707E-1,-3.220739365E0,-1.086341476E1
1.055738959E1,-2.129612118E-1,-2.885145903E0,-1.111705399E1
1.056731896E1,-3.469592929E-1,-2.641077995E0,-1.091127110E1
1.057725709E1,1.256231871E-2,-2.281556368E0,-1.079162979E1
1.058719521E1,3.236292601E-1,-1.682752490E0,-1.040339470E1
1.059713902E1,-4.546362907E-2,-9.972088337E-1,-1.082034397E1
1.060707714E1,-6.203392744E-1,-7.148557901E-1,-1.090648556E1
1.061701527E1,-1.928016901E0,-8.775677085E-1,-1.122233772E1
1.062693928E1,-2.316252232E0,-1.165304661E0,-1.087298584E1
1.063687745E1,-1.861017823E0,-1.414158225E0,-1.101177025E1
1.064681558E1,-8.835497499E-1,-1.222732425E0,-1.146700478E1
1.065678407E1,7.776673418E-3,-8.584251404E-1,-1.094477081E1
1.066672219E1,5.922235847E-1,-8.201399446E-1,-1.079641533E1
1.067666032E1,6.065805554E-1,-8.201399446E-1,-1.137607670E1
1.068658365E1,2.327020019E-1,-8.919246197E-1,-1.142871952E1
1.069652178E1,-1.411765367E-1,-8.344969153E-1,-1.108833981E1
1.070646000E1,-4.713860750E-1,-1.141376376E0,-1.181695461E1
1.071641105E1,-5.335994363E-1,-1.538584948E0,-1.201316643E1
1.072634922E1,-3.900300860E-1,-1.596610904E0,-1.178345490E1
1.073628740E1,-1.268195957E-1,-1.347159147E0,-1.109312534E1
1.074622834E1,1.178465188E-1,-1.500299811E0,-1.133300591E1
1.075616652E1,4.911268353E-1,-2.027318954E0,-1.192223835E1
1.076610469E1,8.027920127E-1,-2.085345030E0,-1.155314636E1
1.077604063E1,8.075776696E-1,-1.922034740E0,-1.132822037E1
1.078597881E1,7.645068169E-1,-1.826321840E0,-1.147179031E1
1.079591698E1,5.922235847E-1,-1.917249203E0,-1.143829060E1
1.080584480E1,4.145565331E-1,-2.137987137E0,-1.158664513E1
1.081578292E1,3.044866920E-1,-2.161915302E0,-1.108355427E1
1.082572115E1,1.704886109E-1,-2.075773716E0,-1.090170002E1
1.083566193E1,2.087737769E-1,-2.070389748E0,-1.116969585E1
1.084560011E1,2.614158690E-1,-2.109273195E0,-1.102134132E1
1.085553829E1,1.322034448E-1,-2.104487419E0,-1.099741268E1
1.086546589E1,9.870393574E-2,-2.090130568E0,-1.093519974E1
1.087540402E1,9.870393574E-2,-2.104487419E0,-1.082034397E1
1.088534219E1,2.991028363E-3,-2.185843468E0,-1.074855900E1
1.089528271E1,-1.746760458E-1,-2.315055847E0,-1.089212894E1
1.090522089E1,-2.991028428E-1,-2.415554523E0,-1.097827053E1
1.091515907E1,-3.230310678E-1,-2.722434044E0,-1.114098263E1
1.092511219E1,-4.378865361E-1,-2.966501951E0,-1.065224838E1
1.093505032E1,-5.000999570E-1,-2.961716175E0,-1.006301594E1
1.094498855E1,-3.900300860E-1,-2.913859844E0,-1.010608673E1
1.095492756E1,-1.938186288E-1,-3.000001431E0,-1.029811001E1
1.096486573E1,7.776673418E-3,-3.168097258E0,-1.053260708E1
1.097480391E1,4.127619043E-2,-3.326023579E0,-1.005823040E1
1.098470881E1,-8.374879509E-2,-3.412165165E0,-9.876375198E0
1.099464698E1,-2.225325108E-1,-3.632304668E0,-1.006301594E1
1.100458521E1,-2.033899277E-1,-4.039682865E0,-9.991230965E0
1.101452719E1,-1.555334777E-1,-4.317848682E0,-9.909874916E0
1.102446537E1,-2.895315289E-1,-4.423132420E0,-9.593423843E0
1.103440360E1,-5.335994363E-1,-4.336990833E0,-9.105288506E0
1.104435719E1,-4.618147612E-1,-4.255635262E0,-9.550353050E0
1.105429532E1,-4.713860750E-1,-4.332205296E0,-9.559925079E0
1.106423355E1,-7.160521746E-1,-4.250849247E0,-9.066405296E0
1.107418506E1,-6.394818425E-1,-4.116253376E0,-9.651450157E0
1.108412323E1,-6.346961856E-1,-4.183252335E0,-9.661021233E0
1.109406141E1,-8.213363886E-1,-4.284348965E0,-9.023334503E0
1.110398120E1,-8.979067206E-1,-4.389633179E0,-9.220144272E0
1.111391933E1,-8.787640929E-1,-4.643272400E0,-9.627521515E0
1.112385756E1,-8.404789567E-1,-4.983651161E0,-9.244071960E0
1.113380776E1,-7.160521746E-1,-5.227719307E0,-8.702695847E0
1.114374594E1,-5.964110494E-1,-5.213362217E0,-8.515457153E0
1.115368412E1,-6.251249313E-1,-5.151148796E0,-8.481958389E0
1.116362365E1,-7.686942816E-1,-5.069792747E0,-7.686942577E0
1.117356178E1,-8.404789567E-1,-4.878366947E0,-7.720442295E0
1.118350000E1,-9.026923180E-1,-4.830510616E0,-8.654839516E0
1.119344396E1,-9.266205430E-1,-5.002793789E0,-8.462815285E0
1.120338219E1,-6.729813814E-1,-5.237290382E0,-7.873582840E0
1.121332042E1,-4.570291340E-1,-5.539384365E0,-7.663014412E0
1.122322360E1,-5.724828243E-1,-5.874977589E0,-7.456633568E0
1.123316183E1,-7.351947427E-1,-6.248258114E0,-7.509873867E0
1.124310011E1,-7.926225066E-1,-6.598208427E0,-7.782655716E0
1.125305980E1,-8.165507317E-1,-6.870990276E0,-7.811369419E0
1.126299803E1,-7.734799385E-1,-6.991229534E0,-7.811369419E0
1.127293626E1,-6.346961856E-1,-7.024729252E0,-7.734799385E0
1.128287308E1,-7.591229677E-1,-7.063014030E0,-6.924828529E0
1.129281131E1,-9.074779749E-1,-7.130013466E0,-6.402595043E0
1.130274954E1,-9.218349457E-1,-7.302296638E0,-7.001997471E0
1.131268610E1,-8.644071817E-1,-7.503891945E0,-7.159923553E0
1.132262433E1,-6.729813814E-1,-7.685746193E0,-6.532405853E0
1.133256256E1,-3.421736360E-1,-7.901100159E0,-6.220740795E0
1.134248855E1,-4.067798331E-2,-8.174480438E0,-6.101099491E0
1.135242678E1,2.213360928E-2,-8.480761528E0,-5.827719688E0
1.136236506E1,3.170489892E-2,-8.653642654E0,-5.617151260E0
1.137231146E1,-1.028913707E-1,-8.591429710E0,-5.267200947E0
1.138224969E1,4.606183618E-2,-8.461619377E0,-5.219344616E0
1.139218792E1,2.374876440E-1,-8.207980156E0,-5.464010715E0
1.140211980E1,4.480560422E-1,-7.983054638E0,-5.760720730E0
1.141205803E1,5.778666735E-1,-7.853243828E0,-5.358726501E0
1.142199631E1,5.826523304E-1,-7.910671711E0,-4.797609329E0
1.143193626E1,7.884350419E-1,-8.251050949E0,-4.203591347E0
1.144187448E1,1.095314622E0,-8.548358917E0,-3.882952929E0
1.145181271E1,1.253240824E0,-8.620143890E0,-3.614358664E0
1.146174730E1,9.128618240E-1,-8.562715530E0,-3.355933666E0
1.147168558E1,7.118647099E-1,-8.701499939E0,-3.485146284E0
1.148162381E1,7.118647099E-1,-8.711071014E0,-3.236292601E0
1.149157907E1,8.362914920E-1,-8.534002304E0,-3.068196774E0
1.150151730E1,1.124028444E0,-8.351549149E0,-3.399004459E0
1.151145553E1,1.382453322E0,-8.260622025E0,-3.681357622E0
1.152138245E1,1.401595831E0,-8.188837051E0,-3.480360508E0
1.153132063E1,9.320043921E-1,-8.160123825E0,-2.958127022E0
1.154125891E1,5.922235847E-1,-8.246265411E0,-2.359323025E0
1.155119214E1,5.922235847E-1,-8.203194618E0,-1.980658889E0
1.156113037E1,9.607182741E-1,-8.088338852E0,-1.966302037E0
1.157106860E1,1.363310695E0,-7.805387497E0,-2.445464849E0
1.158102167E1,1.708475351E0,-7.953742504E0,-2.737987280E0
1.159095990E1,1.694118381E0,-8.428119659E0,-2.675773859E0
1.160089813E1,1.511665702E0,-8.907281876E0,-2.407179594E0
1.161082974E1,1.076171994E0,-9.175876617E0,-1.875374794E0
1.162076797E1,6.400800347E-1,-9.099306107E0,-1.123430252E0
1.163070626E1,4.719842672E-1,-8.524430275E0,-6.442674994E-1
1.164063860E1,5.778666735E-1,-7.848458290E0,-8.069794178E-1
1.165057683E1,1.003789067E0,-7.340581894E0,-1.027119160E0
1.166051506E1,1.339382529E0,-7.034300327E0,-1.176072359E0
1.167046198E1,1.277169108E0,-7.187440872E0,-1.544566989E0
1.168040021E1,1.124028444E0,-7.398009300E0,-1.923231244E0
1.169033844E1,9.607182741E-1,-7.714460373E0,-2.057229280E0
1.170026370E1,8.602197170E-1,-8.064410210E0,-2.014158487E0
1.171020178E1,1.234098315E0,-8.495118141E0,-2.004587173E0
1.172013990E1,1.703689694E0,-8.730213165E0,-2.057229280E0
1.173010412E1,1.789831281E0,-8.868997574E0,-2.153540373E0
1.174004224E1,1.813759565E0,-8.950352669E0,-2.191825628E0
1.174998037E1,1.727617979E0,-9.007781029E0,-2.143969059E0
1.175991526E1,1.732403636E0,-9.276374817E0,-2.139183521E0
1.176985334E1,1.646261930E0,-9.611968994E0,-1.971087694E0
1.177979146E1,1.406381488E0,-1.004746246E1,-2.124228239E0
1.178973636E1,1.176670551E0,-1.041176987E1,-2.225325108E0
1.179967443E1,8.458628058E-1,-1.078564835E1,-2.018944025E0
1.180961261E1,5.150550604E-1,-1.100100231E1,-1.707877159E0
1.181953907E1,3.140579760E-1,-1.085743237E1,-1.286142230E0
1.182947714E1,1.417747438E-1,-1.043569756E1,-6.155536175E-1
1.183941527E1,1.609173268E-1,-1.032084274E1,-1.507478207E-1
1.184935209E1,1.848455518E-1,-1.038784122E1,8.913264424E-2
1.185929016E1,1.800599098E-1,-1.062712383E1,4.145565331E-1
1.186922829E1,2.231307179E-1,-1.133181000E1,2.279163599E-1
1.187917162E1,3.714857101E-1,-1.170509052E1,-2.321037948E-1
1.188910974E1,4.336991012E-1,-1.131266689E1,-5.820540786E-1
1.189904787E1,6.975077987E-1,-1.123609734E1,-9.505487680E-1
1.190898672E1,1.085743308E0,-1.151366425E1,-1.458425403E0
1.191892480E1,1.320239902E0,-1.137488079E1,-1.827518344E0
1.192886292E1,1.727617979E0,-1.106321526E1,-1.966302037E0
1.193877797E1,1.942971945E0,-1.059362411E1,-1.602592945E0
1.194871610E1,2.076970100E0,-1.004267693E1,-1.247856975E0
1.195865422E1,2.053041935E0,-9.578469276E0,-1.214357495E0
1.196860579E1,1.794616938E0,-9.266803741E0,-1.209571838E0
1.197854386E1,1.482951880E0,-9.281160355E0,-1.185643673E0
1.198848198E1,1.162313581E0,-9.367302895E0,-8.356932998E-1
1.199844198E1,8.123632669E-1,-9.329017639E0,-2.799602449E-1
1.200838011E1,5.294120312E-1,-9.233304024E0,3.140579760E-1
1.201831818E1,3.236292601E-1,-9.238089561E0,4.193421602E-1
1.202822047E1,2.327020019E-1,-9.195018768E0,5.778666735E-1
1.203815860E1,1.178465188E-1,-9.233304024E0,5.778666735E-1
1.204809667E1,2.327020019E-1,-9.520442963E0,4.001995921E-1
1.205805329E1,5.826523304E-1,-9.822537422E0,3.427718580E-1
1.206799136E1,1.080957651E0,-9.937392235E0,3.332005441E-1
1.207792948E1,1.506880045E0,-9.908679008E0,3.571287692E-1
1.208786110E1,1.775474429E0,-9.870393753E0,2.997010350E-1
1.209779917E1,1.928615093E0,-9.942177773E0,2.374876440E-1
1.210773730E1,1.914258122E0,-1.010548782E1,1.704886109E-1
1.211766704E1,1.775474429E0,-1.016291618E1,1.513460279E-1
1.212760516E1,1.670190215E0,-1.019641590E1,1.800599098E-1
1.213754329E1,1.646261930E0,-1.031127071E1,2.374876440E-1
1.214748433E1,1.727617979E0,-1.042134094E1,2.949153781E-1
1.215742240E1,1.756331801E0,-1.054576778E1,3.140579760E-1
1.216736053E1,1.914258122E0,-1.097228813E1,2.422732860E-1
1.217731443E1,2.278565407E0,-1.132702446E1,-9.810572863E-2
1.218725256E1,2.331207514E0,-1.113021469E1,-5.820540786E-1
1.219719063E1,2.100898266E0,-1.066122150E1,-1.070788145E0
1.220714469E1,1.832902193E0,-1.036869907E1,-1.405783296E0
1.221708297E1,1.627119422E0,-1.022034359E1,-1.511067510E0
1.222702126E1,1.415952802E0,-1.011027431E1,-1.597807288E0
1.223694834E1,1.243669510E0,-1.006660461E1,-1.597807288E0
1.224688662E1,1.061216831E0,-9.966106415E0,-1.741376638E0
1.225682485E1,7.932206988E-1,-9.674181938E0,-1.904088616E0
1.226677042E1,4.289134443E-1,-9.400801659E0,-1.899302959E0
1.227670865E1,1.513460279E-1,-9.281160355E0,-1.741376638E0
1.228664693E1,6.041877344E-2,-9.218947411E0,-1.683948994E0
1.229658839E1,5.084748194E-2,-9.007781029E0,-1.841875196E0
1.230652667E1,8.913264424E-2,-8.778069496E0,-1.961516380E0
1.231646490E1,1.992024779E-1,-8.529216766E0,-1.899302959E0
1.232640000E1,3.714857101E-1,-8.207980156E0,-1.530210137E0
1.233633823E1,5.246263742E-1,-7.858029366E0,-1.424925923E0
1.234627652E1,7.070791125E-1,-7.618747234E0,-1.746162295E0
1.235620438E1,8.745766878E-1,-7.527820110E0,-1.712662816E0
1.236614266E1,9.894321561E-1,-7.513463020E0,-1.333998680E0
1.237608089E1,1.296311617E0,-7.527820110E0,-1.223928809E0
1.238600594E1,1.761117458E0,-7.532605648E0,-1.631306887E0
1.239594417E1,2.019542217E0,-7.484749317E0,-2.517249346E0
1.240588245E1,1.890329838E0,-7.244868755E0,-3.753740549E0
1.241582068E1,1.641476393E0,-6.919445038E0,-4.740181446E0
1.242575750E1,1.291526079E0,-6.348756790E0,-3.676572084E0
1.243569579E1,1.569093466E0,-6.013761520E0,-1.703091502E0
1.244563407E1,2.417349100E0,-6.334399700E0,-1.367498159E0
1.245556193E1,3.433102369E0,-7.043871880E0,-2.747558594E0
1.246550021E1,4.165904045E0,-7.858029366E0,-3.667000771E0
1.247543849E1,2.719442844E0,-8.370692253E0,-2.953341246E0
1.248540573E1,-4.283152521E-1,-8.538787842E0,-2.076371908E0
1.249534396E1,-3.173480988E0,-8.534002304E0,-9.792626500E-1
1.250528224E1,-4.241876125E0,-8.466404915E0,-8.117650747E-1
1.251518808E1,-3.101696253E0,-8.792427063E0,-3.202793121E0
1.252512636E1,-7.639086246E-1,-9.089735031E0,-5.602794170E0
1.253506464E1,1.191027522E0,-8.682356834E0,-5.674578667E0
1.254501209E1,1.554736495E0,-7.709674358E0,-4.658825874E0
1.255495032E1,7.022934556E-1,-6.751348972E0,-3.705285788E0
1.256488860E1,2.566302419E-1,-6.195616245E0,-4.074378967E0
1.257485516E1,6.496513486E-1,-6.257829189E0,-5.454439163E0
1.258479339E1,1.947757602E0,-7.187440872E0,-6.541976929E0
1.259473167E1,2.575275421E0,-8.437690735E0,-6.201598167E0
1.260465443E1,6.209374666E-1,-8.849854469E0,-6.427121639E0
1.261459266E1,-2.215753794E0,-8.490332603E0,-7.107281685E0
1.262453094E1,-3.226721287E0,-7.983054638E0,-7.643871784E0
1.263447974E1,-3.346362352E0,-7.551748276E0,-8.606983185E0
1.264441803E1,-3.485146284E0,-6.967301369E0,-8.252246857E0
1.265435626E1,-3.058625460E0,-6.209972858E0,-8.190033913E0
1.266429146E1,-2.273181438E0,-5.870192051E0,-8.831908226E0
1.267422969E1,-1.832303882E0,-6.445067883E0,-8.664410591E0
1.268416797E1,-1.578066587E0,-6.919445038E0,-7.303493023E0
1.269410917E1,-9.505487680E-1,-6.986443996E0,-6.719046116E0
1.270404740E1,-2.703889608E-1,-6.943373203E0,-7.078567505E0
1.271398568E1,-5.503492057E-2,-6.981658459E0,-7.092924595E0
1.272390318E1,-2.560320199E-1,-6.684350014E0,-7.643871784E0
1.273384131E1,-5.096712112E-1,-6.085546017E0,-8.807980537E0
1.274377943E1,-1.986042857E-1,-5.687739372E0,-9.018548965E0
1.275371454E1,1.369891018E-1,-5.802595139E0,-9.488140106E0
1.276365266E1,6.041877344E-2,-6.147759438E0,-1.020718288E1
1.277359079E1,1.369891018E-1,-6.564708710E0,-9.258428574E0
1.278351704E1,4.480560422E-1,-6.938587666E0,-8.592626572E0
1.279345521E1,-1.938186288E-1,-6.895516872E0,-9.052047729E0
1.280339334E1,-1.410568953E0,-6.353542328E0,-8.505886078E0
1.281337829E1,-2.076371908E0,-5.659025669E0,-9.234500885E0
1.282331641E1,-2.085943222E0,-5.218147755E0,-9.756733894E0
1.283325454E1,-1.808375716E0,-5.026721954E0,-9.540781975E0
1.284315693E1,-1.520638824E0,-4.830510616E0,-9.339784622E0
1.285309506E1,-9.409775138E-1,-4.619344234E0,-9.162715912E0
1.286303318E1,-5.772684813E-1,-4.077968121E0,-7.998009682E0
1.287297777E1,2.231307179E-1,-3.848257065E0,-9.066405296E0
1.288291589E1,1.046859860E0,-3.589233875E0,-1.132343483E1
1.289285402E1,9.511470199E-1,-3.464807272E0,-1.023111153E1
1.290277876E1,5.730810165E-1,-3.302095175E0,-1.076770210E1
1.291271693E1,-2.751746178E-1,-3.019144058E0,-1.109791183E1
1.292265506E1,-1.544566989E0,-3.412165165E0,-9.124430656E0
1.293260771E1,-2.675175667E0,-3.675375462E0,-8.999405861E0
1.294254584E1,-3.197409153E0,-3.809971809E0,-1.001515961E1
1.295248396E1,-2.651247501E0,-3.963112593E0,-9.627521515E0
1.296244157E1,-1.803590059E0,-3.781257868E0,-9.037691116E0
1.297237969E1,-8.165507317E-1,-2.995215654E0,-9.325428009E0
1.298231787E1,-2.225325108E-1,-2.319841623E0,-9.895518303E0
1.299223594E1,-2.392822644E-3,-1.759322882E0,-9.943374634E0
1.300217407E1,1.082752272E-1,-1.485942841E0,-9.516854286E0
1.301211219E1,2.135594189E-1,-1.902892232E0,-9.780662537E0
1.302203261E1,2.279163599E-1,-2.602194548E0,-9.919445992E0
1.303197079E1,3.188436031E-1,-3.114856958E0,-9.790233612E0
1.304190896E1,4.767699242E-1,-3.326023579E0,-9.871589661E0
1.305186313E1,5.294120312E-1,-3.364308596E0,-1.041775131E1
1.306180126E1,1.181456208E0,-3.028715372E0,-1.051346493E1
1.307173943E1,9.463613629E-1,-2.233700037E0,-1.067139053E1
1.308167073E1,-1.268195957E-1,-1.606182218E0,-1.064746284E1
1.309160891E1,-2.273181528E-1,-1.558325768E0,-1.086341476E1
1.310154704E1,-1.220339537E-1,-1.725823283E0,-1.056610680E1
1.311151063E1,-1.220339537E-1,-1.644467354E0,-1.063789082E1
1.312144876E1,-4.474578202E-1,-1.428515077E0,-1.110269737E1
1.313138688E1,-8.548358679E-1,-1.519442320E0,-1.133779144E1
1.314129672E1,-5.144568682E-1,-1.567897081E0,-1.106441212E1
1.315123485E1,7.262216806E-1,-1.606182218E0,-1.064746284E1
1.316117297E1,8.602197170E-1,-8.584251404E-1,-1.076291656E1
1.317112360E1,5.198407173E-1,-5.138586760E-1,-1.118883896E1
1.318106172E1,3.332005441E-1,-5.808576941E-1,-1.054696369E1
1.319099990E1,4.049852192E-1,-6.669993401E-1,-1.087298584E1
1.320092849E1,1.609173268E-1,-8.679963946E-1,-1.163928795E1
1.321086667E1,-4.067798331E-2,-1.069591761E0,-1.169192982E1
1.322080480E1,1.130608693E-1,-1.060020447E0,-1.103091240E1
1.323075178E1,2.949153781E-1,-9.206385016E-1,-1.109791183E1
1.324068995E1,1.800599098E-1,-9.206385016E-1,-1.169192982E1
1.325062808E1,-2.632104978E-2,-1.146162033E0,-1.162971592E1
1.326055037E1,-6.460621208E-2,-1.524227977E0,-1.136172009E1
1.327048860E1,-4.546362907E-2,-1.620539188E0,-1.122233772E1
1.328042667E1,7.956135273E-2,-1.744965911E0,-1.146221828E1
1.329040157E1,2.757728100E-1,-1.859821439E0,-1.141436195E1
1.330033974E1,5.246263742E-1,-1.912463546E0,-1.111226845E1
1.331027787E1,5.635097623E-1,-1.926820397E0,-1.150050354E1
1.332021318E1,4.767699242E-1,-1.931606054E0,-1.138564873E1
1.333015131E1,4.193421602E-1,-1.797608018E0,-1.128036404E1
1.334008948E1,3.906283081E-1,-1.840678811E0,-1.157707405E1
1.335002698E1,3.427718580E-1,-2.003390789E0,-1.146700478E1
1.335996516E1,3.332005441E-1,-2.157129526E0,-1.099262714E1
1.336990334E1,4.959124923E-1,-2.396411896E0,-1.134257793E1
1.337981636E1,6.592226624E-1,-2.544766903E0,-1.137607670E1
1.338975454E1,5.587241054E-1,-2.453839540E0,-1.081555843E1
1.339969271E1,3.762713671E-1,-2.334198475E0,-1.086341476E1
1.340966188E1,2.566302419E-1,-2.382055044E0,-1.095912743E1
1.341960001E1,1.657029688E-1,-2.377269268E0,-1.073898792E1
1.342953818E1,3.284149170E-1,-2.434697151E0,-1.116969585E1
1.343945990E1,4.145565331E-1,-2.655434847E0,-1.104048347E1
1.344939808E1,3.523431420E-1,-2.760719061E0,-1.024546814E1
1.345933620E1,3.619144261E-1,-2.789433002E0,-1.018804073E1
1.346925678E1,3.619144261E-1,-2.976073265E0,-1.065703392E1
1.347919495E1,2.566302419E-1,-3.168097258E0,-1.071027374E1
1.348913313E1,1.944168359E-1,-3.239881754E0,-1.040818024E1
1.349907422E1,5.084748194E-2,-3.263810158E0,-1.027896786E1
1.350901235E1,-9.332008660E-2,-3.340380430E0,-1.031246758E1
1.351895047E1,-6.460621208E-2,-3.512663603E0,-1.036989498E1
1.352890157E1,-2.632104978E-2,-3.833899975E0,-1.029332447E1
1.353883969E1,-3.110669367E-2,-4.101896286E0,-1.021196842E1
1.354877782E1,-7.896314561E-2,-4.284348965E0,-9.790233612E0
1.355869865E1,-1.746760458E-1,-4.308277130E0,-9.080761909E0
1.356863683E1,-1.220339537E-1,-4.370490551E0,-9.032905579E0
1.357857501E1,-9.810572863E-2,-4.346562386E0,-9.675378799E0
1.358853042E1,-2.751746178E-1,-4.403990269E0,-9.823733330E0
1.359846855E1,-4.857429862E-1,-4.504488468E0,-9.545567513E0
1.360840672E1,-4.187439680E-1,-4.686343193E0,-9.579067230E0
1.361834943E1,-4.378865361E-1,-4.959722996E0,-9.008976936E0
1.362828761E1,-4.235295951E-1,-5.098506927E0,-8.798408508E0
1.363822573E1,-2.847459018E-1,-5.199005604E0,-8.717052460E0
1.364815667E1,-1.746760458E-1,-5.222933769E0,-8.870193481E0
1.365809480E1,-1.938186288E-1,-5.275575638E0,-9.363713264E0
1.366803292E1,-5.772684813E-1,-5.434100151E0,-8.486743927E0
1.367798558E1,-4.857429862E-1,-5.347958565E0,-8.314460754E0
1.368792376E1,-2.512463629E-1,-5.458028316E0,-8.669196129E0
1.369786188E1,-3.134597540E-1,-5.735595703E0,-8.443673134E0
1.370777016E1,-3.852444589E-1,-5.932405472E0,-8.309675217E0
1.371770834E1,-4.378865361E-1,-6.075974941E0,-8.405387878E0
1.372764652E1,-5.389832854E-1,-6.162116528E0,-8.089534760E0
1.373759573E1,-4.522434771E-1,-6.281757832E0,-7.576872826E0
1.374753386E1,-4.187439680E-1,-6.353542328E0,-7.202994347E0
1.375747204E1,-4.522434771E-1,-6.416353703E0,-7.456633568E0
1.376741360E1,-3.900300860E-1,-6.497709751E0,-7.749155998E0
1.377735172E1,-2.799602449E-1,-6.641279221E0,-7.470990658E0
1.378728990E1,-1.938186288E-1,-6.751348972E0,-7.456633568E0
1.379724271E1,-1.220339537E-1,-6.803991318E0,-7.403991699E0
1.380718084E1,-4.546362907E-2,-6.727420807E0,-6.809973240E0
1.381711902E1,-2.153540403E-2,-6.555137634E0,-6.723831654E0
1.382702917E1,-1.316052526E-1,-6.502495766E0,-6.867401123E0
1.383696735E1,-1.986042857E-1,-6.626922131E0,-6.613761902E0
1.384690553E1,-1.651047617E-1,-6.703492641E0,-6.359524250E0
1.385687469E1,-2.153540403E-2,-6.765706062E0,-6.120242119E0
1.386681282E1,1.369891018E-1,-7.029514790E0,-5.660222054E0
1.387675099E1,3.284149170E-1,-7.407580853E0,-5.430510998E0
1.388667652E1,3.571287692E-1,-7.714460373E0,-5.353940487E0
1.389661464E1,4.671986103E-1,-8.040482521E0,-5.454439163E0
1.390655282E1,5.539384484E-1,-8.284550667E0,-5.425725460E0
1.391646855E1,6.735795736E-1,-8.289336205E0,-5.392225742E0
1.392640672E1,7.788637877E-1,-8.131409645E0,-5.559723377E0
1.393634485E1,6.496513486E-1,-7.877171993E0,-5.516652584E0
1.394629162E1,5.539384484E-1,-7.633104324E0,-5.109274387E0
1.395622974E1,5.682953596E-1,-7.542177200E0,-4.850849628E0
1.396616792E1,3.284149170E-1,-7.537391186E0,-4.630111694E0
1.397612933E1,-7.178467698E-3,-7.819744587E0,-4.725824833E0
1.398606745E1,4.127619043E-2,-8.179265976E0,-4.295116425E0
1.399600563E1,1.417747438E-1,-8.380263329E0,-3.887738705E0
1.400593209E1,3.571287692E-1,-8.601000786E0,-3.964308977E0
1.401587021E1,4.241278172E-1,-8.734998703E0,-3.949951887E0
1.402580834E1,3.044866920E-1,-8.677571297E0,-3.763311863E0
1.403575834E1,4.624129832E-1,-8.663214684E0,-3.700500250E0
1.404569646E1,6.975077987E-1,-8.787641525E0,-3.504288673E0
1.405563464E1,8.793623447E-1,-8.859425545E0,-2.991626501E0
1.406555782E1,8.458628058E-1,-8.711071014E0,-2.752344131E0
1.407549594E1,7.932206988E-1,-8.442476273E0,-2.752344131E0
1.408543412E1,1.013360381E0,-8.337192535E0,-2.900699139E0
1.409540219E1,1.210170031E0,-8.538787842E0,-3.130410194E0
1.410534032E1,1.401595831E0,-8.739784241E0,-3.125624657E0
1.411527849E1,1.358525038E0,-8.778069496E0,-2.733201742E0
1.412519167E1,1.181456208E0,-8.615358353E0,-2.139183521E0
1.413512980E1,9.080761671E-1,-8.529216766E0,-1.975873351E0
1.414506797E1,1.248455167E0,-8.624929428E0,-2.287538528E0
1.415501099E1,1.545165181E0,-8.754141808E0,-2.469393015E0
1.416494912E1,1.406381488E0,-8.845068932E0,-2.134397745E0
1.417488730E1,1.344168067E0,-8.897710800E0,-1.252642632E0
1.418483407E1,1.411167145E0,-8.701499939E0,-9.553344250E-1
1.419477219E1,1.751546144E0,-8.514859200E0,-1.219143152E0
1.420471037E1,2.033899307E0,-8.255836487E0,-1.400997639E0
1.421463756E1,1.828116536E0,-7.867600918E0,-1.439282775E0
1.422457568E1,1.377667665E0,-7.738388538E0,-1.314856052E0
1.423451386E1,9.320043921E-1,-7.704888821E0,-1.180858016E0
1.424446204E1,8.937192559E-1,-8.006982803E0,-1.281356573E0
1.425440021E1,9.080761671E-1,-8.456833839E0,-1.276570916E0
1.426433844E1,9.846464992E-1,-8.801998138E0,-1.534995675E0
1.427427240E1,9.655039310E-1,-8.854640007E0,-1.731805444E0
1.428421063E1,9.320043921E-1,-8.806783676E0,-1.765304923E0
1.429414886E1,1.018146038E0,-8.912068367E0,-1.774876237E0
1.430409646E1,1.051645517E0,-9.319445610E0,-1.846660852E0
1.431403469E1,1.104885817E0,-9.655039787E0,-1.837089539E0
1.432397292E1,8.985049129E-1,-9.458230019E0,-1.875374794E0
1.433390157E1,1.003789067E0,-9.348159790E0,-1.980658889E0
1.434383980E1,1.224527001E0,-9.539586067E0,-1.755733609E0
1.435377803E1,1.387238979E0,-9.999606133E0,-1.415354609E0
1.436370495E1,1.588235974E0,-1.057926750E1,-1.085145116E0
1.437364313E1,1.497308731E0,-1.066122150E1,-7.782655358E-1
1.438358136E1,1.694118381E0,-1.087178993E1,-4.331009090E-1
1.439353719E1,1.856830359E0,-1.075214863E1,6.520441920E-2
1.440347537E1,1.670190215E0,-1.059362411E1,5.682953596E-1
1.441341365E1,1.411167145E0,-1.061276627E1,8.171489239E-1
1.442331881E1,1.372882009E0,-1.062233829E1,9.272187948E-1
1.443325698E1,1.305882931E0,-1.074257755E1,6.448656917E-1
1.444319527E1,1.277169108E0,-1.086221886E1,3.858426511E-1
1.445316318E1,1.277169108E0,-1.085743237E1,1.848455518E-1
1.446310141E1,1.396810174E0,-1.093400288E1,-3.086741269E-1
1.447303964E1,1.497308731E0,-1.102014446E1,-7.495517135E-1
1.448297256E1,1.665404558E0,-1.085264683E1,-1.003190875E0
1.449291079E1,1.885544300E0,-1.040219784E1,-1.147358418E0
1.450284902E1,2.024327993E0,-1.001396275E1,-1.190429211E0
1.451278167E1,1.923829436E0,-9.765109062E0,-1.133001566E0
1.452271990E1,1.823330879E0,-9.860821724E0,-1.085145116E0
1.453265813E1,1.842473388E0,-1.007139015E1,-1.051047325E0
1.454261214E1,1.914258122E0,-1.013898754E1,-8.787640929E-1
1.455255037E1,1.813759565E0,-9.851250648E0,-5.581258535E-1
1.456248860E1,1.617548108E0,-9.510871887E0,-1.746760458E-1
1.457241063E1,1.396810174E0,-9.367302895E0,9.870393574E-2
1.458234886E1,1.176670551E0,-9.501300812E0,2.422732860E-1
1.459228709E1,1.022931695E0,-9.789037704E0,5.539384484E-1
1.460220652E1,1.027717352E0,-9.745966911E0,8.889335990E-1
1.461214469E1,1.267597795E0,-9.439086914E0,1.162313581E0
1.462208292E1,1.521237016E0,-9.041878700E0,1.291526079E0
1.463202823E1,1.627119422E0,-8.763712883E0,1.200598717E0
1.464196646E1,1.540379524E0,-8.734998703E0,9.750752449E-1
1.465190469E1,1.363310695E0,-8.744570732E0,8.458628058E-1
1.466186990E1,1.454237938E0,-9.132805824E0,5.341976285E-1
1.467180813E1,1.497308731E0,-9.506086349E0,1.896311939E-1
1.468174636E1,1.573879123E0,-9.693324089E0,4.127619043E-2
1.469166454E1,1.698904037E0,-1.000439167E1,-2.368894368E-1
1.470160276E1,1.804188251E0,-1.035434151E1,-5.916253924E-1
1.471154099E1,1.756331801E0,-1.064686394E1,-8.165507317E-1
1.472147756E1,1.713261008E0,-1.092443180E1,-9.936196208E-1
1.473141573E1,1.746760488E0,-1.113978577E1,-1.113858938E0
1.474135402E1,1.660618901E0,-1.123131084E1,-9.888339639E-1
1.475128995E1,1.482951880E0,-1.117866898E1,-7.543373108E-1
1.476122808E1,1.392024517E0,-1.082871914E1,-5.485545993E-1
1.477116620E1,1.124028444E0,-1.029212856E1,-3.852444589E-1
1.478109068E1,7.453642488E-1,-1.000439167E1,-2.799602449E-1
1.479102886E1,5.102694035E-1,-9.975677490E0,-2.991028428E-1
1.480096698E1,3.954139352E-1,-1.020598698E1,-2.799602449E-1
1.481092115E1,4.336991012E-1,-1.050748253E1,-3.086741269E-1
1.482085928E1,6.496513486E-1,-1.071864891E1,-3.804588020E-1
1.483079740E1,1.046859860E0,-1.079521942E1,-5.246263742E-1
1.484073193E1,1.482951880E0,-1.067557812E1,-7.160521746E-1
1.485067006E1,1.665404558E0,-1.027298546E1,-8.691928387E-1
1.486060818E1,1.694118381E0,-9.856036186E0,-9.553344250E-1
1.487055146E1,1.636690736E0,-9.477372169E0,-1.022333503E0
1.488048959E1,1.487737536E0,-9.128020287E0,-1.209571838E0
1.489042771E1,1.291526079E0,-8.859425545E0,-1.582852125E0
1.490036792E1,1.046859860E0,-8.696713448E0,-2.187039852E0
1.491030605E1,7.070791125E-1,-8.691927910E0,-2.656033039E0
1.492024417E1,4.001995921E-1,-8.720642090E0,-2.349751949E0
1.493017469E1,1.848455518E-1,-8.744570732E0,-1.755733609E0
1.494011282E1,2.853440940E-1,-8.739784241E0,-1.928016901E0
1.495005094E1,7.884350419E-1,-8.365905762E0,-2.493321180E0
1.495999678E1,1.258026481E0,-7.776673794E0,-2.718844652E0
1.496993490E1,1.506880045E0,-7.350152969E0,-2.550748825E0
1.497987303E1,1.775474429E0,-7.082156658E0,-1.750947952E0
1.498979912E1,2.268994093E0,-6.698707104E0,-9.840483069E-1
1.499973724E1,2.968296528E0,-6.138188362E0,-1.674377680E0
1.500967542E1,3.739383698E0,-5.965905190E0,-2.555534601E0
1.501961568E1,4.420141697E0,-6.631708145E0,-2.301895380E0
1.502955386E1,4.396213531E0,-7.633104324E0,-1.784447432E0
1.503949198E1,3.342175007E0,-8.284550667E0,-2.201396942E0
1.504945719E1,1.473380566E0,-8.322834969E0,-2.666202545E0
1.505939532E1,-1.363908947E-1,-7.843672752E0,-2.517249346E0
1.506933344E1,-3.900300860E-1,-7.752745152E0,-2.018944025E0
1.507927407E1,6.448656917E-1,-8.294121742E0,-1.995015860E0
1.508921219E1,1.622333765E0,-8.926424980E0,-2.392822742E0
1.509915032E1,1.322034448E-1,-9.089735031E0,-1.621735573E0
1.510905870E1,-2.407179594E0,-9.046664238E0,-4.618147612E-1
1.511899683E1,-3.236292601E0,-9.051449776E0,-8.979067206E-1
1.512893500E1,-2.201396942E0,-8.955139160E0,-2.766701221E0
1.513886303E1,2.518445849E-1,-8.873783112E0,-5.305486202E0
1.514880120E1,3.087937593E0,-8.801998138E0,-7.222136974E0
1.515873933E1,4.774279594E0,-8.610571861E0,-7.164709091E0
1.516870292E1,4.189832687E0,-8.145766258E0,-4.496113777E0
1.517864105E1,1.392024517E0,-7.432106972E0,-2.335394859E0
1.518857917E1,-1.357926846E0,-7.235297680E0,-2.354537487E0
1.519852631E1,-2.598605394E0,-7.623532772E0,-4.577469826E0
1.520846443E1,-2.445464849E0,-8.241478920E0,-6.244668961E0
1.521840256E1,-1.448854089E0,-8.974281311E0,-6.680760860E0
1.522830907E1,-4.713860750E-1,-9.477372169E0,-6.302096844E0
1.523824719E1,4.001995921E-1,-9.683753014E0,-5.684150219E0
1.524818532E1,6.879364848E-1,-9.415159225E0,-5.861218929E0
1.525812599E1,1.704886109E-1,-8.725427628E0,-6.431907177E0
1.526806412E1,-4.546362907E-2,-7.407580853E0,-6.187241077E0
1.527800224E1,-2.033899277E-1,-5.841478348E0,-7.068996429E0
1.528796500E1,-4.905286431E-1,-4.825725079E0,-8.721838951E0
1.529790308E1,-7.926225066E-1,-4.600201607E0,-7.883154392E0
1.530784120E1,-5.533402562E-1,-4.974080086E0,-6.628118515E0
1.531778662E1,-4.091726840E-1,-5.510670662E0,-8.381459236E0
1.532772474E1,-7.782655358E-1,-6.315257072E0,-9.234500885E0
1.533766282E1,-9.361918569E-1,-6.435496330E0,-7.442276478E0
1.534757829E1,-7.160521746E-1,-6.861418724E0,-7.456633568E0
1.535751636E1,-4.618147612E-1,-7.359724045E0,-7.854440212E0
1.536745448E1,-2.751746178E-1,-7.153941631E0,-8.362317085E0
1.537739537E1,-6.442674994E-1,-6.272186279E0,-9.124430656E0
1.538733344E1,-1.166501045E0,-5.170291424E0,-9.037691116E0
1.539727157E1,-1.372283816E0,-4.399204254E0,-9.823733330E0
1.540722349E1,-1.880160451E0,-4.034897327E0,-1.007737255E1
1.541716157E1,-1.856232166E0,-4.178466320E0,-9.641879082E0
1.542709969E1,-1.932802439E0,-4.671986103E0,-8.898907661E0
1.543704443E1,-1.636092424E0,-5.227719307E0,-9.080761909E0
1.544698256E1,-1.362712502E0,-5.587240696E0,-8.788837433E0
1.545692063E1,-6.155536175E-1,-5.486742496E0,-7.730013371E0
1.546682693E1,4.193421602E-1,-5.098506927E0,-7.548159122E0
1.547676506E1,9.128618240E-1,-4.217350006E0,-8.266604424E0
1.548670318E1,7.932206988E-1,-3.168097258E0,-9.277571678E0
1.549664855E1,1.274178028E-1,-2.732005358E0,-9.833304405E0
1.550658667E1,-3.900300860E-1,-2.516052961E0,-1.059003448E1
1.551652480E1,-9.122636318E-1,-2.751147747E0,-1.062831974E1
1.552649167E1,-6.107679605E-1,-3.776472330E0,-1.006301594E1
1.553642974E1,-1.794617027E-1,-4.700700283E0,-1.017368412E1
1.554636787E1,-5.772684813E-1,-4.657629490E0,-9.215357780E0
1.555629735E1,-8.261220455E-1,-4.327419758E0,-9.167501450E0
1.556623547E1,-7.974081635E-1,-3.987040758E0,-9.704092026E0
1.557617355E1,-2.656033039E-1,-3.541377544E0,-9.847661972E0
1.558611834E1,2.901297510E-1,-3.187239647E0,-9.905089378E0
1.559605641E1,7.477571070E-2,-2.650649309E0,-9.852447510E0
1.560599454E1,-7.782655358E-1,-2.468196630E0,-1.108355427E1
1.561593053E1,-9.649057388E-1,-2.861217737E0,-1.159143066E1
1.562586860E1,-6.634100676E-1,-3.340380430E0,-1.070548820E1
1.563580672E1,-3.469592929E-1,-3.613162279E0,-1.009172916E1
1.564573271E1,-2.153540403E-2,-3.373879910E0,-9.814162254E0
1.565567079E1,4.863412082E-1,-3.215953588E0,-9.550353050E0
1.566560891E1,1.243669510E0,-3.023929596E0,-9.919445992E0
1.567553110E1,1.847259045E0,-2.679363251E0,-1.065224838E1
1.568546922E1,1.564307809E0,-2.041675806E0,-1.153878880E1
1.569540735E1,1.752742529E-1,-1.438086390E0,-1.075334454E1
1.570535386E1,-9.409775138E-1,-1.141376376E0,-1.076770210E1
1.571529193E1,-1.036690354E0,-1.768894196E0,-1.169671535E1
1.572523006E1,-1.651047617E-1,-2.343769789E0,-1.169192982E1
1.573518063E1,1.369891018E-1,-2.338984251E0,-1.093041420E1
1.574511870E1,-1.842473447E-1,-1.869392633E0,-1.062831974E1
1.575505683E1,8.913264424E-2,-1.673181176E0,-1.018804073E1
1.576497547E1,7.692924738E-1,-1.548754454E0,-1.082034397E1
1.577491360E1,1.444666624E0,-1.232303619E0,-1.071984577E1
1.578485178E1,5.730810165E-1,-5.952146053E-1,-1.128993511E1
1.579480881E1,-5.096712112E-1,-4.899304509E-1,-1.193181038E1
1.580474693E1,-1.674975827E-2,-7.244270444E-1,-1.123729324E1
1.581468506E1,5.294120312E-1,-7.244270444E-1,-1.093998528E1
1.582459954E1,6.544370055E-1,-8.967102766E-1,-1.075813103E1
1.583453766E1,5.874379873E-1,-7.722834945E-1,-1.074855900E1
1.584447584E1,5.922235847E-1,-1.031306505E0,-1.128993511E1
1.585443610E1,5.395814776E-1,-9.732806087E-1,-1.103569794E1
1.586437422E1,6.352944374E-1,-7.292127013E-1,-1.111226845E1
1.587431235E1,7.980063558E-1,-5.377869010E-1,-1.161057377E1
1.588423256E1,5.587241054E-1,-2.500499785E-1,-1.138086224E1
1.589417063E1,2.213360928E-2,-1.591227055E-1,-1.158185959E1
1.590410881E1,-2.751746178E-1,-4.366901219E-1,-1.184566879E1
1.591405724E1,-2.273181528E-1,-7.435696125E-1,-1.203230858E1
1.592399537E1,2.853440940E-1,-9.445667267E-1,-1.167278671E1
1.593393349E1,8.506484628E-1,-8.009973764E-1,-1.089212894E1
1.594385928E1,1.329811215E0,-7.674978375E-1,-1.093519974E1
1.595379740E1,1.157527924E0,-6.239284873E-1,-1.090648556E1
1.596373558E1,7.070791125E-1,-5.712863803E-1,-1.099262714E1
1.597367152E1,4.001995921E-1,-6.574280262E-1,-1.117448139E1
1.598360964E1,1.082752272E-1,-7.674978375E-1,-1.123729324E1
1.599354782E1,1.657029688E-1,-8.584251404E-1,-1.123729324E1
1.600351355E1,4.097708762E-1,-1.040877819E0,-1.166800117E1
1.601345167E1,6.065805554E-1,-1.299302697E0,-1.091127110E1
1.602338980E1,9.176474810E-1,-1.485942841E0,-1.081555843E1
1.603331964E1,1.051645517E0,-1.610967875E0,-1.067617607E1
1.604325776E1,6.352944374E-1,-1.476371527E0,-1.009172916E1
1.605319589E1,2.374876440E-1,-1.337587833E0,-1.050867844E1
1.606312646E1,1.513460279E-1,-1.418943882E0,-1.096391296E1
1.607306454E1,3.332005441E-1,-1.538584948E0,-1.118883896E1
1.608300271E1,3.762713671E-1,-1.620539188E0,-1.101655579E1
1.609294261E1,1.561316848E-1,-1.577468276E0,-1.066660500E1
1.610288073E1,7.956135273E-2,-1.735394597E0,-1.066181946E1
1.611281886E1,1.082752272E-1,-2.046461582E0,-1.056132126E1
1.612278219E1,1.513460279E-1,-2.228914261E0,-1.042253685E1
1.613272032E1,2.039881349E-1,-2.204986095E0,-1.030768204E1
1.614265844E1,2.566302419E-1,-2.190629244E0,-1.036989498E1
1.615257099E1,3.188436031E-1,-2.176272154E0,-1.059960651E1
1.616250912E1,2.422732860E-1,-2.181057930E0,-1.063310528E1
1.617244724E1,6.041877344E-2,-2.267199516E0,-1.065224838E1
1.618240974E1,-1.268195957E-1,-2.539981127E0,-1.036510944E1
1.619234787E1,-1.938186288E-1,-2.803789854E0,-1.005344391E1
1.620228599E1,-9.332008660E-2,-3.148954630E0,-1.030289650E1
1.621221334E1,3.649054468E-2,-3.416950703E0,-1.017846966E1
1.622215146E1,1.130608693E-1,-3.579662561E0,-1.002951622E1
1.623208959E1,3.649054468E-2,-3.574877024E0,-9.325428009E0
1.624203021E1,1.734796353E-2,-3.483949661E0,-9.445069313E0
1.625196834E1,-7.417750359E-2,-3.661018610E0,-9.866804123E0
1.626190646E1,-3.373879790E-1,-3.943969965E0,-9.397212982E0
1.627182709E1,-2.991028428E-1,-4.356133461E0,-9.172286987E0
1.628176521E1,-5.503492057E-2,-4.681557655E0,-9.334999084E0
1.629170339E1,1.034895778E-1,-4.811367989E0,-9.430712700E0
1.630163704E1,-3.589234129E-2,-4.902295589E0,-9.263215065E0
1.631157521E1,-4.067798331E-2,-4.830510616E0,-8.635697365E0
1.632151339E1,-2.943171859E-1,-4.595416069E0,-8.831908226E0
1.633147751E1,-6.681957245E-1,-4.571487427E0,-9.162715912E0
1.634141568E1,-7.495517135E-1,-4.787439823E0,-8.812766075E0
1.635135381E1,-6.538388133E-1,-5.175076962E0,-8.280961037E0
1.636125626E1,-4.761717021E-1,-5.596812248E0,-8.606983185E0
1.637119443E1,-3.469592929E-1,-5.879763603E0,-9.220144272E0
1.638113261E1,-4.666004181E-1,-6.023332596E0,-8.697910309E0
1.639109381E1,-4.187439680E-1,-6.119045734E0,-8.333602905E0
1.640103193E1,-1.842473447E-1,-6.171687603E0,-8.438887596E0
1.641097011E1,-2.512463629E-1,-6.114260197E0,-7.384849072E0
1.642089355E1,-3.948157430E-1,-5.827121258E0,-6.939185619E0
1.643083172E1,-2.847459018E-1,-5.611168861E0,-8.103892326E0
1.644076990E1,-5.581258535E-1,-5.582455158E0,-8.123034477E0
1.645071526E1,-6.107679605E-1,-5.711667538E0,-7.725227833E0
1.646065339E1,-3.756731451E-1,-5.870192051E0,-7.605587006E0
1.647059162E1,-5.581258535E-1,-6.080760479E0,-7.131209850E0
1.648053126E1,-8.596215248E-1,-6.315257072E0,-6.876972198E0
1.649046938E1,-8.165507317E-1,-6.583851337E0,-7.064210415E0
1.650040756E1,-4.426721931E-1,-6.832705021E0,-6.833901405E0
1.651034886E1,-1.459621787E-1,-7.019943237E0,-6.397809505E0
1.652028704E1,5.563312769E-2,-7.182655334E0,-6.249454498E0
1.653022516E1,2.470589429E-1,-7.302296638E0,-6.125027657E0
1.654017605E1,3.044866920E-1,-7.412366390E0,-5.957530022E0
1.655011422E1,1.130608693E-1,-7.283154011E0,-6.010172367E0
1.656005235E1,7.477571070E-2,-7.182655334E0,-6.249454498E0
1.656998990E1,1.896311939E-1,-7.287939548E0,-6.330810547E0
1.657992803E1,1.609173268E-1,-7.398009300E0,-6.096313953E0
1.658986620E1,1.992024779E-1,-7.566105366E0,-5.722435474E0
1.659980974E1,2.183450609E-1,-7.881958008E0,-5.679364681E0
1.660974792E1,5.563312769E-2,-8.088338852E0,-5.559723377E0
1.661968605E1,4.127619043E-2,-8.222336769E0,-5.171487808E0
1.662961058E1,4.336991012E-1,-8.346763611E0,-5.027918816E0
1.663954870E1,6.209374666E-1,-8.227122307E0,-4.836492538E0
1.664948688E1,8.027920127E-1,-8.093124390E0,-5.094917774E0
1.665941964E1,1.032503009E0,-7.992625713E0,-5.373083115E0
1.666935776E1,1.176670551E0,-8.021339417E0,-5.291129112E0
1.667929594E1,1.219741344E0,-8.102695465E0,-4.898705959E0
1.668923922E1,1.234098315E0,-8.160123825E0,-4.740181446E0
1.669917735E1,1.104885817E0,-8.246265411E0,-4.735395908E0
1.670911553E1,8.219345808E-1,-8.308478355E0,-4.658825874E0
1.671906834E1,5.102694035E-1,-8.385048866E0,-4.721039295E0
1.672900652E1,2.853440940E-1,-8.514859200E0,-4.500899315E0
1.673894464E1,2.470589429E-1,-8.620143890E0,-4.083950043E0
1.674888266E1,2.757728100E-1,-8.749356270E0,-3.787240028E0
1.675882079E1,2.374876440E-1,-8.840283394E0,-3.576073408E0
1.676875896E1,3.858426511E-1,-8.969495773E0,-3.403790236E0
1.677869855E1,6.879364848E-1,-9.026923180E0,-3.456432343E0
1.678863678E1,1.219741344E0,-8.888139725E0,-3.556930780E0
1.679857506E1,1.765903115E0,-8.768498421E0,-3.733999729E0
1.680851396E1,1.990828395E0,-8.725427628E0,-3.571287870E0
1.681845219E1,1.938186288E0,-8.768498421E0,-3.279363394E0
1.682839042E1,1.751546144E0,-8.754141808E0,-3.231507063E0
1.683828693E1,1.492523074E0,-8.648857117E0,-2.967698336E0
1.684822521E1,1.258026481E0,-8.591429710E0,-2.636890650E0
1.685816344E1,1.229312658E0,-8.610571861E0,-2.545963287E0
1.686811344E1,1.238883972E0,-8.854640007E0,-2.440679073E0
1.687805172E1,1.348953724E0,-9.113663673E0,-1.956730723E0
1.688799001E1,1.694118381E0,-9.276374817E0,-1.999801517E0
1.689792204E1,2.086541414E0,-9.621540070E0,-2.728415966E0
1.690786026E1,1.923829436E0,-9.827322960E0,-2.258824587E0
1.691779849E1,1.032503009E0,-9.698110580E0,-8.213363886E-1
1.692777693E1,4.767699242E-1,-9.539586067E0,-8.374879509E-2
1.693771521E1,3.858426511E-1,-9.295517921E0,1.130608693E-1
1.694765349E1,4.576273263E-1,-8.983852386E0,2.327020019E-1
1.695756422E1,8.362914920E-1,-8.538787842E0,1.800599098E-1
1.696750245E1,1.348953724E0,-8.059624672E0,-2.225325108E-1
1.697744073E1,1.387238979E0,-7.709674358E0,-8.500502706E-1
1.698737928E1,1.205384374E0,-7.432106972E0,-1.453639746E0
1.699731750E1,1.133599758E0,-7.254439831E0,-1.995015860E0
1.700725573E1,1.296311617E0,-7.264011383E0,-2.349751949E0
1.701718172E1,1.320239902E0,-7.197012424E0,-2.612962246E0
1.702712000E1,1.492523074E0,-7.235297680E0,-2.843271494E0
1.703705823E1,1.530808330E0,-7.369295597E0,-2.843271494E0
1.704700922E1,1.660618901E0,-7.566105366E0,-2.522035122E0
1.705694745E1,2.024327993E0,-8.121838570E0,-2.148754835E0
1.706688568E1,2.383849621E0,-9.080163956E0,-1.947159410E0
1.707683636E1,2.522633314E0,-9.908679008E0,-1.813161373E0
1.708677464E1,2.398206472E0,-1.076650524E1,-1.674377680E0
1.709671287E1,2.460419893E0,-1.179661560E1,-1.794018745E0
1.710663256E1,2.369492531E0,-1.239063358E1,-1.980658889E0
1.711657079E1,1.971685886E0,-1.246720409E1,-1.899302959E0
1.712650907E1,1.482951880E0,-1.212682533E1,-1.582852125E0
1.713646198E1,9.894321561E-1,-1.147537899E1,-9.696913958E-1
1.714640021E1,9.702895880E-1,-1.116849995E1,-5.868397355E-1
1.715633849E1,1.128814101E0,-1.100578785E1,-3.469592929E-1
1.716626204E1,1.147956610E0,-1.069472122E1,-7.896314561E-2
1.717620027E1,1.267597795E0,-1.032562828E1,1.561316848E-1
1.718613849E1,1.291526079E0,-1.021077251E1,3.092723191E-1
1.719606698E1,1.195813060E0,-1.025384331E1,2.374876440E-1
1.720600526E1,1.027717352E0,-1.050748253E1,4.127619043E-2
1.721594355E1,9.463613629E-1,-1.056012440E1,-9.332008660E-2
1.722587990E1,1.109671474E0,-1.041176987E1,-2.177468538E-1
1.723581818E1,1.463809252E0,-1.006181908E1,-3.038884699E-1
1.724575646E1,1.823330879E0,-9.563513756E0,-3.804588020E-1
1.725572662E1,2.014756680E0,-9.290732384E0,-5.144568682E-1
1.726566485E1,2.201995134E0,-9.214161873E0,-5.581258535E-1
1.727560313E1,2.278565407E0,-9.147162437E0,-5.868397355E-1
1.728553855E1,2.259422779E0,-9.108877182E0,-5.629115105E-1
1.729547672E1,2.096112728E0,-9.113663673E0,-5.533402562E-1
1.730541495E1,1.909472466E0,-9.295517921E0,-4.331009090E-1
1.731534849E1,1.746760488E0,-9.635896683E0,-2.416750938E-1
1.732528672E1,1.689332843E0,-9.942177773E0,-4.546362907E-2
1.733522490E1,1.741974831E0,-1.014377308E1,1.082752272E-1
1.734513928E1,1.794616938E0,-1.026341438E1,2.279163599E-1
1.735507750E1,1.761117458E0,-1.023470020E1,3.667000830E-1
1.736501573E1,1.689332843E0,-1.009531879E1,5.102694035E-1
1.737498219E1,1.670190215E0,-9.884750366E0,6.209374666E-1
1.738492037E1,1.732403636E0,-9.741181374E0,6.975077987E-1
1.739485860E1,1.871187329E0,-9.688538551E0,7.453642488E-1
1.740479474E1,2.009970903E0,-9.822537422E0,7.262216806E-1
1.741473292E1,2.081755638E0,-1.000439167E1,5.491527915E-1
1.742467115E1,2.187638044E0,-1.015813065E1,3.236292601E-1
1.743460714E1,2.288136721E0,-1.031127071E1,2.135594189E-1
1.744454537E1,2.335993052E0,-1.036391354E1,9.870393574E-2
1.745448355E1,2.283350945E0,-1.022512913E1,7.178467698E-3
1.746442469E1,2.139183521E0,-9.951749802E0,-2.153540403E-2
1.747436287E1,1.938186288E0,-9.755537987E0,1.256231871E-2
1.748430110E1,1.741974831E0,-9.683753014E0,2.691925503E-2
1.749424271E1,1.622333765E0,-9.769894600E0,-2.153540403E-2
1.750418089E1,1.627119422E0,-9.918250084E0,-9.332008660E-2
1.751411912E1,1.689332843E0,-1.010010433E1,-1.794617027E-1
1.752405162E1,1.789831281E0,-1.016291618E1,-3.421736360E-1
1.753398980E1,1.818545222E0,-1.006660461E1,-5.533402562E-1
1.754392803E1,1.737189293E0,-9.980463028E0,-7.495517135E-1
1.755386693E1,1.679761529E0,-9.875179291E0,-1.094716311E0
1.756380516E1,1.573879123E0,-9.798608780E0,-1.558923960E0
1.757374334E1,1.296311617E0,-9.741181374E0,-2.018944025E0
1.758365969E1,8.889335990E-1,-9.745966911E0,-2.301895380E0
1.759359792E1,5.682953596E-1,-9.879964828E0,-2.435893536E0
1.760353615E1,4.001995921E-1,-9.942177773E0,-2.244467735E0
1.761350006E1,2.470589429E-1,-9.793823242E0,-1.655235052E0
1.762343829E1,1.800599098E-1,-9.314660072E0,-1.271785259E0
1.763337646E1,3.762713671E-1,-8.734998703E0,-1.525424480E0
1.764329120E1,7.118647099E-1,-8.361120224E0,-1.760519266E0
1.765322938E1,9.942178130E-1,-8.327621460E0,-1.472782373E0
1.766316761E1,1.095314622E0,-8.222336769E0,-9.649057388E-1
1.767312907E1,1.214955688E0,-8.117053032E0,-8.931210637E-1
1.768306724E1,1.444666624E0,-8.255836487E0,-1.233500123E0
1.769300547E1,1.718046665E0,-8.385048866E0,-1.444068432E0
1.770295146E1,1.914258122E0,-8.351549149E0,-1.243071318E0
1.771288964E1,2.014756680E0,-7.983054638E0,-1.142572761E0
1.772282787E1,2.057827473E0,-7.220940590E0,-1.822732687E0
1.773273870E1,2.158924341E0,-6.674778938E0,-3.010769129E0
1.774267688E1,2.245065928E0,-6.650850773E0,-3.926023722E0
1.775261511E1,2.240280151E0,-7.153941631E0,-3.729214191E0
1.776257308E1,2.450848579E0,-8.203194618E0,-3.087339401E0
1.777251126E1,2.503490686E0,-9.002995491E0,-2.493321180E0
1.778244948E1,2.019542217E0,-8.907281876E0,-2.062014818E0
1.779237756E1,1.540379524E0,-8.380263329E0,-1.827518344E0
1.780231573E1,1.291526079E0,-8.112266541E0,-1.683948994E0
1.781225391E1,5.635097623E-1,-7.901100159E0,-1.999801517E0
1.782217282E1,-3.517449200E-1,-7.432106972E0,-3.255435228E0
1.783211105E1,-8.069794178E-1,-7.201797962E0,-4.879563808E0
1.784204917E1,-1.938186288E-1,-7.810173035E0,-5.569294930E0
1.785199870E1,1.502094388E0,-8.926424980E0,-5.315057278E0
1.786193688E1,2.627917528E0,-9.611968994E0,-3.926023722E0
1.787187506E1,1.296311617E0,-9.463015556E0,-2.258824587E0
1.788183178E1,-5.437689424E-1,-9.218947411E0,-2.378465652E0
1.789176995E1,-1.243071318E0,-9.209376335E0,-3.499503136E0
1.790170813E1,-6.777670383E-1,-9.156734467E0,-4.567898273E0
1.791163167E1,5.635097623E-1,-8.835497856E0,-5.779862881E0
1.792156985E1,8.075776696E-1,-8.155337334E0,-6.527620316E0
1.793150803E1,6.999006122E-2,-7.590033531E0,-6.518048763E0
1.794145730E1,-6.825526357E-1,-7.680960655E0,-5.986244202E0
1.795139542E1,-1.176072359E0,-8.035696983E0,-5.497509956E0
1.796133365E1,-1.444068432E0,-8.274978638E0,-5.233701229E0
1.797125954E1,-1.190429211E0,-8.399405479E0,-5.875576019E0
1.798119771E1,-6.729813814E-1,-8.605786324E0,-7.274778843E0
1.799113589E1,-2.177468538E-1,-9.108877182E0,-7.706085205E0
1.800109178E1,-3.900300860E-1,-9.544371605E0,-6.968497753E0
1.801102995E1,-1.434497118E0,-9.118449211E0,-6.091528416E0
1.802096813E1,-1.631306887E0,-7.661818027E0,-6.359524250E0
1.803089172E1,-8.548358679E-1,-6.416353703E0,-8.261817932E0
1.804082990E1,-7.896314561E-2,-5.582455158E0,-8.874979019E0
1.805076808E1,6.209374666E-1,-5.242076397E0,-7.701299667E0
1.806071896E1,1.358525038E0,-5.319244862E0,-7.313064098E0
1.807065714E1,1.430309772E0,-5.697310925E0,-7.892725468E0
1.808059526E1,1.037288666E0,-6.272186279E0,-7.658228874E0
1.809052313E1,1.267597795E0,-7.015157700E0,-7.950153351E0
1.810046131E1,1.186241865E0,-7.240083218E0,-7.615158081E0
1.811039948E1,5.682953596E-1,-7.311867714E0,-8.635697365E0
1.812034818E1,-4.713860750E-1,-7.153941631E0,-9.143573761E0
1.813028636E1,-1.487139225E0,-6.861418724E0,-8.127820015E0
1.814022454E1,-1.534995675E0,-6.305685997E0,-7.663014412E0
1.815014553E1,-1.295713425E0,-5.577669621E0,-7.825726509E0
1.816008370E1,-9.457631707E-1,-5.261219025E0,-8.994620323E0
1.817002188E1,-6.251249313E-1,-5.069792747E0,-9.406784058E0
1.817997860E1,-6.460621208E-2,-4.964509010E0,-8.736195564E0
1.818991678E1,1.896311939E-1,-4.835296154E0,-8.400602341E0
1.819985495E1,1.256231871E-2,-4.835296154E0,-9.153144836E0
1.820978391E1,-2.392822644E-3,-5.045864582E0,-9.881160736E0
1.821972204E1,6.065805554E-1,-5.343173027E0,-9.483354568E0
1.822966026E1,8.554341197E-1,-5.017150879E0,-8.659625053E0
1.823958698E1,4.241278172E-1,-4.504488468E0,-8.429315567E0
1.824952516E1,-2.273181528E-1,-4.265206337E0,-9.488140106E0
1.825946334E1,-3.373879790E-1,-4.547559261E0,-1.038903809E1
1.826939287E1,1.609173268E-1,-4.954937458E0,-1.020718288E1
1.827933105E1,1.176670551E0,-5.050650597E0,-9.244071960E0
1.828926922E1,1.602592945E0,-4.801796913E0,-8.898907661E0
1.829920933E1,1.171884894E0,-4.317848682E0,-9.100502968E0
1.830914740E1,6.687939167E-1,-3.948755503E0,-9.521639824E0
1.831908553E1,5.730810165E-1,-3.786043644E0,-9.909874916E0
1.832906224E1,9.415757060E-1,-3.920041800E0,-1.039382362E1
1.833900032E1,1.167099237E0,-4.241278172E0,-1.104526901E1
1.834893844E1,8.745766878E-1,-4.336990833E0,-1.085384369E1
1.835882855E1,4.049852192E-1,-4.413561344E0,-1.071506023E1
1.836876667E1,4.528416991E-1,-4.475774765E0,-1.086820030E1
1.837870480E1,6.305087805E-1,-4.077968121E0,-1.027896786E1
1.838865844E1,9.176474810E-1,-3.675375462E0,-9.670592308E0
1.839859652E1,1.545165181E0,-3.536591768E0,-9.948160172E0
1.840853464E1,2.019542217E0,-3.474378586E0,-9.766305923E0
1.841846568E1,1.971685886E0,-3.311666489E0,-9.862018585E0
1.842840381E1,1.660618901E0,-3.278167009E0,-1.016889763E1
1.843834193E1,1.258026481E0,-3.479164124E0,-1.047996521E1
1.844830000E1,6.305087805E-1,-3.752544165E0,-1.090648556E1
1.845823808E1,4.815555513E-1,-3.915256023E0,-1.085862923E1
1.846817620E1,3.810569942E-1,-3.776472330E0,-1.103091240E1
1.847813011E1,6.400800347E-1,-3.460021496E0,-1.076770210E1
1.848806823E1,1.100100160E0,-2.971287489E0,-1.011565781E1
1.849800631E1,1.602592945E0,-2.592623234E0,-9.507282257E0
1.850794079E1,1.751546144E0,-2.348555326E0,-9.334999084E0
1.851787886E1,1.176670551E0,-2.377269268E0,-9.866804123E0
1.852781698E1,5.341976285E-1,-2.472982168E0,-1.030289650E1
1.853772172E1,8.506484628E-1,-2.822932482E0,-1.004865837E1
1.854765985E1,1.588235974E0,-3.052643538E0,-9.866804123E0
1.855759797E1,1.602592945E0,-2.808575630E0,-1.033639526E1
1.856757126E1,1.224527001E0,-2.358126640E0,-1.045125103E1
1.857750933E1,1.109671474E0,-2.008176327E0,-1.007258701E1
1.858744745E1,8.554341197E-1,-1.874178290E0,-9.962516785E0
1.859739198E1,1.008574724E0,-2.022533417E0,-9.061619759E0
1.860733011E1,1.056431174E0,-2.090130568E0,-9.502496719E0
1.861726818E1,5.150550604E-1,-1.821536183E0,-1.023111153E1
1.862716235E1,2.422732860E-1,-1.730608940E0,-9.771091461E0
1.863710047E1,3.954139352E-1,-1.634896040E0,-1.003908730E1
1.864703860E1,1.018146038E0,-1.754537225E0,-1.086341476E1
1.865701047E1,1.549950838E0,-1.912463546E0,-1.038903809E1
1.866694855E1,1.363310695E0,-1.658824325E0,-9.847661972E0
1.867688667E1,1.372882009E0,-1.625324726E0,-1.025503922E1
1.868680672E1,1.238883972E0,-1.917249203E0,-1.066660500E1
1.869674480E1,8.267202377E-1,-1.816750646E0,-1.022154045E1
1.870668292E1,8.554341197E-1,-1.826321840E0,-1.059960651E1
1.871663001E1,1.262812138E0,-1.941177368E0,-1.078205872E1
1.872656813E1,1.617548108E0,-1.960319996E0,-1.018804073E1
1.873650620E1,1.588235974E0,-1.945963025E0,-9.885947227E0
1.874643381E1,1.353739381E0,-1.979462504E0,-1.006301594E1
1.875637188E1,1.085743308E0,-2.147558212E0,-1.029811001E1
1.876631000E1,8.506484628E-1,-2.262413740E0,-1.024068260E1
1.877624329E1,8.219345808E-1,-2.300698996E0,-1.047039413E1
1.878618136E1,1.133599758E0,-2.358126640E0,-1.071506023E1
1.879611948E1,1.046859860E0,-2.224128723E0,-1.000558758E1
1.880606896E1,9.080761671E-1,-2.185843468E0,-9.962516785E0
1.881600709E1,1.143171072E0,-2.396411896E0,-1.026461124E1
1.882594532E1,1.229312658E0,-2.606980324E0,-1.053739262E1
1.883588855E1,1.258026481E0,-2.765504837E0,-1.051346493E1
1.884582672E1,1.133599758E0,-2.832503796E0,-1.007258701E1
1.885576490E1,9.511470199E-1,-2.856431961E0,-1.016411209E1
1.886567599E1,8.697910309E-1,-2.880360365E0,-1.019761181E1
1.887561417E1,7.501499057E-1,-2.803789854E0,-9.795019150E0
1.888555240E1,6.927221417E-1,-2.818146944E0,-9.459425926E0
1.889553428E1,6.544370055E-1,-2.971287489E0,-9.972088814E0
1.890547245E1,7.310073376E-1,-3.148954630E0,-1.066181946E1
1.891541063E1,6.161518097E-1,-3.297309637E0,-1.037946606E1
1.892534370E1,3.092723191E-1,-3.369094372E0,-9.665806770E0
1.893528183E1,2.662015259E-1,-3.388236761E0,-9.148359299E0
1.894522006E1,2.949153781E-1,-3.354737282E0,-9.268000603E0
1.895515000E1,3.044866920E-1,-3.536591768E0,-1.014915752E1
1.896508818E1,2.662015259E-1,-3.876971006E0,-1.080120182E1
1.897502636E1,1.800599098E-1,-4.226921082E0,-1.046560764E1
1.898496698E1,2.135594189E-1,-4.499702930E0,-9.593423843E0
1.899490516E1,1.657029688E-1,-4.614558697E0,-8.937192917E0
1.900484334E1,1.657029688E-1,-4.581058979E0,-8.276175499E0
1.901478178E1,1.609173268E-1,-4.427918434E0,-8.458029747E0
1.902471995E1,2.135594189E-1,-4.356133461E0,-9.368498802E0
1.903465813E1,2.470589429E-1,-4.485345840E0,-9.766305923E0
1.904458626E1,4.606183618E-2,-4.686343193E0,-9.488140106E0
1.905452438E1,-1.459621787E-1,-4.878366947E0,-9.023334503E0
1.906446256E1,-3.996013701E-1,-5.055436134E0,-8.338388443E0
1.907440308E1,-5.437689424E-1,-5.280361176E0,-7.806583881E0
1.908434126E1,-4.713860750E-1,-5.491528034E0,-8.079963684E0
1.909427943E1,-2.991028428E-1,-5.745167255E0,-8.841479301E0
1.910420053E1,-1.890329868E-1,-5.922834396E0,-8.774480820E0
1.911413865E1,-9.332008660E-2,-5.956333637E0,-8.645268440E0
1.912407688E1,-1.172483116E-1,-5.879763603E0,-8.793622971E0
1.913403391E1,-3.565305769E-1,-5.793023586E0,-8.458029747E0
1.914397209E1,-5.240281820E-1,-5.773880959E0,-8.070392609E0
1.915391026E1,-6.873382926E-1,-5.649454117E0,-7.921439171E0
1.916385183E1,-8.069794178E-1,-5.654240131E0,-7.777870178E0
1.917378995E1,-6.921239495E-1,-5.903691769E0,-8.429315567E0
1.918372813E1,-7.160521746E-1,-6.253043652E0,-8.252246857E0
1.919366787E1,-5.964110494E-1,-6.617351055E0,-7.538587570E0
1.920360605E1,-4.713860750E-1,-6.827919483E0,-7.102495670E0
1.921354422E1,-5.676971674E-1,-6.905087948E0,-6.934400082E0
1.922346167E1,-6.921239495E-1,-6.948158741E0,-6.790830612E0
1.923339980E1,-6.155536175E-1,-6.924230576E0,-6.786045074E0
1.924333803E1,-3.948157430E-1,-6.895516872E0,-6.881757736E0
1.925329349E1,-1.507478207E-1,-6.957729816E0,-6.958926678E0
1.926323167E1,-1.842473447E-1,-7.106084824E0,-7.265207767E0
1.927316985E1,-5.288137794E-1,-7.326224804E0,-7.447062492E0
1.928311188E1,-6.251249313E-1,-7.484749317E0,-7.336992264E0
1.929305006E1,-4.426721931E-1,-7.594819069E0,-7.088139057E0
1.930298823E1,-2.608176768E-1,-7.580461979E0,-6.766902447E0
1.931290954E1,-1.746760458E-1,-7.633104324E0,-6.652047157E0
1.932284766E1,-2.991028428E-1,-7.747959614E0,-6.642475605E0
1.933278584E1,-4.953143001E-1,-8.126624107E0,-6.125027657E0
1.934272178E1,-4.857429862E-1,-8.715856552E0,-5.655436516E0
1.935265990E1,-4.091726840E-1,-9.333803177E0,-5.204987526E0
1.936259803E1,-2.991028428E-1,-9.563513756E0,-4.740181446E0
1.937255250E1,-4.331009090E-1,-9.343374252E0,-4.150949001E0
1.938249068E1,-6.538388133E-1,-8.912068367E0,-3.494717360E0
1.939242881E1,-9.170492887E-1,-8.327621460E0,-2.891128063E0
1.940235829E1,-1.017547846E0,-7.657032490E0,-2.407179594E0
1.941229641E1,-8.787640929E-1,-7.177869797E0,-2.402393818E0
1.942223459E1,-2.081755698E-1,-7.034300327E0,-2.172683001E0
1.943216433E1,2.279163599E-1,-7.067800045E0,-1.913659930E0
1.944210245E1,2.691925503E-2,-7.297510624E0,-1.582852125E0
1.945204063E1,-2.225325108E-1,-7.475177765E0,-1.118644595E0
1.946199021E1,-4.235295951E-1,-7.642675400E0,-7.447660565E-1
1.947192834E1,-4.905286431E-1,-7.814958572E0,-7.351947427E-1
1.948186646E1,-3.804588020E-1,-7.934599876E0,-1.022333503E0
1.949180277E1,-3.038884699E-1,-8.198408127E0,-1.400997639E0
1.950174089E1,-1.268195957E-1,-8.553144455E0,-1.568495274E0
1.951167907E1,3.236292601E-1,-8.816354752E0,-1.645663738E0
1.952160053E1,1.119242787E0,-8.955139160E0,-1.971087694E0
1.953153870E1,2.450848579E0,-8.993423462E0,-2.282752752E0
1.954147688E1,3.783052683E0,-8.955139160E0,-2.550748825E0
1.955143172E1,4.616353035E0,-8.811569214E0,-2.804986238E0
1.956136990E1,4.995017052E0,-8.408976555E0,-2.919841766E0
1.957130803E1,5.009374142E0,-8.097909927E0,-3.096910715E0
1.958122855E1,5.095515728E0,-8.164909363E0,-2.938984394E0
1.959116667E1,5.004588604E0,-8.432905197E0,-2.507678032E0
1.960110480E1,4.434498787E0,-8.711071014E0,-1.985444546E0
1.961106573E1,3.710669756E0,-9.214161873E0,-1.444068432E0
1.962100386E1,2.910868645E0,-9.717252731E0,-8.069794178E-1
1.963094204E1,2.197209358E0,-1.006181908E1,-2.943171859E-1
1.964087053E1,1.684547186E0,-1.027298546E1,-1.076770201E-1
1.965080865E1,9.607182741E-1,-1.050748253E1,-7.896314561E-2
1.966074678E1,9.391828626E-2,-1.070429230E1,4.127619043E-2
1.967068042E1,-7.974081635E-1,-1.065643597E1,1.992024779E-1
1.968061860E1,-1.472782373E0,-1.063669491E1,2.135594189E-1
1.969055672E1,-1.573280931E0,-1.105842972E1,7.178467698E-3
1.970049839E1,-1.195214868E0,-1.140838051E1,-5.192425251E-1
1.971043652E1,-3.708875179E-1,-1.175833035E1,-1.204786181E0
1.972037464E1,7.776673418E-3,-1.175833035E1,-1.884945989E0
1.973031349E1,2.374876440E-1,-1.136530972E1,-2.368894339E0
1.974025167E1,6.975077987E-1,-1.093400288E1,-2.603390932E0
1.975018980E1,1.334596872E0,-1.064686394E1,-2.493321180E0
1.976011563E1,1.976471543E0,-1.044526863E1,-2.215753794E0
1.977005381E1,2.532204628E0,-1.024905777E1,-1.770090580E0
1.977999193E1,3.188436270E0,-1.029691410E1,-1.448854089E0
1.978992886E1,3.586242914E0,-1.023470020E1,-1.353141189E0
1.979986698E1,3.323032379E0,-9.817750931E0,-1.448854089E0
1.980980516E1,2.388635159E0,-9.199805260E0,-1.563709617E0
1.981978016E1,1.454237938E0,-8.959924698E0,-1.491924882E0
1.982971839E1,7.357929349E-1,-9.026923180E0,-1.238285661E0
1.983965667E1,1.704886109E-1,-9.171091080E0,-7.878368497E-1
1.984958219E1,-3.326023519E-1,-9.429515839E0,-3.230310678E-1
1.985952042E1,-7.495517135E-1,-9.793823242E0,1.609173268E-1
1.986945870E1,-8.739784956E-1,-1.011505985E1,4.432703853E-1
1.987938089E1,-7.112665176E-1,-1.036869907E1,2.662015259E-1
1.988931912E1,-4.761717021E-1,-1.056969547E1,-2.368894368E-1
1.989925740E1,-1.651047617E-1,-1.056969547E1,-7.591229677E-1
1.990920391E1,1.369891018E-1,-1.036869907E1,-1.118644595E0
1.991914214E1,3.762713671E-1,-1.005703354E1,-1.420140266E0
1.992908042E1,5.778666735E-1,-9.683753014E0,-1.448854089E0
1.993900391E1,8.075776696E-1,-9.506086349E0,-1.223928809E0
1.994894219E1,1.128814101E0,-9.486943245E0,-1.055832982E0
1.995888047E1,1.382453322E0,-9.616754532E0,-1.089930773E0
1.996883776E1,1.382453322E0,-9.750752449E0,-1.152144074E0
1.997877599E1,1.085743308E0,-9.563513756E0,-1.219143152E0
1.998871422E1,8.506484628E-1,-9.472586632E0,-1.152144074E0
1.999866474E1,7.884350419E-1,-9.563513756E0,-9.218349457E-1
2.000860297E1,9.128618240E-1,-9.755537987E0,-7.399803996E-1
2.001854126E1,1.133599758E0,-1.001874828E1,-7.782655358E-1
2.002845735E1,1.301097274E0,-1.021555805E1,-8.835497499E-1
2.003839563E1,1.305882931E0,-1.017727280E1,-1.012762189E0
2.004833391E1,1.238883972E0,-9.942177773E0,-1.147358418E0
2.005826631E1,1.143171072E0,-9.784252167E0,-1.223928809E0
2.006820454E1,9.798609018E-1,-9.774680138E0,-1.171286702E0
2.007814277E1,7.836494446E-1,-9.769894600E0,-1.031904817E0
2.008809558E1,7.501499057E-1,-9.812965393E0,-9.888339639E-1
2.009803381E1,8.985049129E-1,-1.011984539E1,-1.046261668E0
2.010797204E1,1.143171072E0,-1.053141022E1,-1.051047325E0
2.011791605E1,1.162313581E0,-1.038784122E1,-1.147358418E0
