"Time (s)","Gyroscope x (rad/s)","Gyroscope y (rad/s)","Gyroscope z (rad/s)"
5.247911900E-2,5.193010904E-3,1.006645188E-1,5.672365800E-2
6.241745300E-2,1.584534161E-2,4.846810177E-2,5.565842614E-2
7.231708800E-2,3.821523488E-2,1.970681176E-2,5.991935730E-2
8.225542100E-2,4.354140162E-2,1.544587873E-2,5.139749497E-2
9.219375500E-2,3.395430371E-2,2.396774292E-2,3.648423031E-2
1.021279210E-1,3.821523488E-2,1.757634431E-2,2.583190054E-2
1.120662030E-1,4.673709720E-2,1.011971384E-2,1.304910425E-2
1.220045880E-1,5.206326395E-2,-6.924014539E-3,-7.989247679E-4
1.319472440E-1,5.525896326E-2,-2.396774292E-2,-8.255556226E-3
1.418855780E-1,5.419373140E-2,-3.355484083E-2,-1.677742042E-2
1.518238590E-1,5.738943070E-2,-4.420717061E-2,-2.636451647E-2
1.617802650E-1,6.271559745E-2,-5.379426852E-2,-3.062544949E-2
1.717185980E-1,7.017222792E-2,-7.296846062E-2,-3.062544949E-2
1.816569320E-1,7.336792350E-2,-8.255556226E-2,-3.169068322E-2
1.915763070E-1,7.230269164E-2,-8.149032295E-2,-3.488638252E-2
2.015146920E-1,7.230269164E-2,-7.509893179E-2,-3.808208182E-2
2.114530260E-1,6.697652489E-2,-6.444659829E-2,-4.234301299E-2
2.213865670E-1,6.271559745E-2,-6.551183015E-2,-4.660394415E-2
2.313248480E-1,8.615072072E-2,-4.953333735E-2,-5.938674137E-2
2.412631820E-1,7.230269164E-2,-9.853405505E-2,-4.234301299E-2
2.512174530E-1,5.312849581E-2,-1.091863886E-1,-4.234301299E-2
2.611557860E-1,5.312849581E-2,-1.017297506E-1,-4.553871229E-2
2.710941190E-1,4.460663348E-2,-1.049254537E-1,-4.766917601E-2
2.810021920E-1,3.608476743E-2,-1.123820841E-1,-5.193011090E-2
2.909404730E-1,2.756290510E-2,-1.209039465E-1,-5.193011090E-2
3.008788070E-1,2.010627277E-2,-1.304910481E-1,-4.979964346E-2
3.108378170E-1,1.051917579E-2,-1.315562725E-1,-4.553871229E-2
3.207761510E-1,9.320789250E-4,-1.177082509E-1,-3.914731368E-2
3.307144320E-1,-6.524552125E-3,-9.959928691E-2,-3.382114694E-2
3.406669840E-1,-1.291595027E-2,-9.746882319E-2,-2.956021577E-2
3.506052650E-1,-1.930734888E-2,-1.070559174E-1,-2.529928461E-2
3.605436510E-1,-2.676397935E-2,-1.166430190E-1,-2.529928461E-2
3.704614110E-1,-3.954677656E-2,-1.177082509E-1,-2.636451647E-2
3.803997440E-1,-6.085143611E-2,-1.166430190E-1,-2.742975019E-2
3.903380780E-1,-8.322133124E-2,-1.059906855E-1,-2.316881903E-2
4.002909940E-1,-1.077216864E-1,-9.746882319E-2,-1.464695390E-2
4.102293280E-1,-1.375482082E-1,-9.107742459E-2,-2.929390874E-3
4.201676610E-1,-1.812227666E-1,-9.107742459E-2,9.853405878E-3
4.300999010E-1,-2.419410497E-1,-1.049254537E-1,2.796236612E-2
4.400382340E-1,-3.367467821E-1,-1.390129030E-1,4.820179567E-2
4.499765670E-1,-4.699009061E-1,-1.645784974E-1,8.122401685E-2
4.599060460E-1,-6.403381824E-1,-1.240996495E-1,1.206376404E-1
4.698443280E-1,-8.320801258E-1,-3.462007269E-2,1.770949960E-1
4.797826610E-1,-1.019561172E0,5.059856921E-2,2.527265251E-1
4.897123480E-1,-1.199585557E0,1.251648813E-1,3.432713449E-1
4.996506820E-1,-1.383870840E0,1.954702586E-1,4.286231399E-1
5.095889630E-1,-1.601178408E0,3.105154335E-1,5.031894445E-1
5.195276090E-1,-1.904769778E0,5.342143774E-1,5.756253004E-1
5.294659940E-1,-2.219013453E0,8.015878797E-1,6.512568593E-1
5.394042760E-1,-2.425668716E0,9.507204890E-1,7.194317579E-1
5.493556300E-1,-2.559888124E0,9.485899806E-1,7.535192370E-1
5.592938070E-1,-2.635519743E0,9.059807062E-1,7.098446488E-1
5.692319840E-1,-2.524735451E0,8.015878797E-1,5.766905546E-1
5.791817230E-1,-2.237122536E0,4.958659708E-1,4.071853161E-1
5.891199010E-1,-1.905835032E0,2.290250920E-2,2.814878225E-1
5.990580780E-1,-1.617156863E0,-3.925383687E-1,2.154433727E-1
6.089971920E-1,-1.388131738E0,-6.694989800E-1,1.685731262E-1
6.189353170E-1,-1.217694521E0,-8.143706322E-1,1.376813650E-1
6.288734940E-1,-1.107975483E0,-8.015878797E-1,1.802906841E-1
6.388074530E-1,-1.060039997E0,-6.876079440E-1,2.750964165E-1
6.487456300E-1,-1.068561912E0,-5.661713481E-1,3.965329826E-1
6.586838070E-1,-1.069627166E0,-6.215634942E-1,5.394073725E-1
6.686298480E-1,-1.051518202E0,-7.312824726E-1,7.045184970E-1
6.785680260E-1,-1.046191931E0,-6.492595077E-1,8.014547229E-1
6.885062030E-1,-1.094127417E0,-3.573856652E-1,8.099765778E-1
6.984101610E-1,-1.195324659E0,3.355484083E-2,7.694976926E-1
7.083483900E-1,-1.281608462E0,3.744294047E-1,7.226274610E-1
7.182865150E-1,-1.349783421E0,6.609770656E-1,6.651048660E-1
7.282369320E-1,-1.411566854E0,7.600437403E-1,5.660381913E-1
7.381750570E-1,-1.410501719E0,5.928021669E-1,4.882761836E-1
7.481132340E-1,-1.338065863E0,4.159734845E-1,4.563191831E-1
7.580834420E-1,-1.250716686E0,3.275591433E-1,4.360797703E-1
7.680216190E-1,-1.223020673E0,2.583190203E-1,4.456668794E-1
7.779597960E-1,-1.234738231E0,2.082530558E-1,4.563191831E-1
7.878656820E-1,-1.241129637E0,1.858831644E-1,4.307536185E-1
7.978038070E-1,-1.265630007E0,1.677742004E-1,3.784240186E-1
8.077420360E-1,-1.298652172E0,5.858781748E-3,3.347494900E-1
8.177087550E-1,-1.257108092E0,-2.998631001E-1,3.155752718E-1
8.276469320E-1,-1.180411339E0,-5.501928329E-1,3.059881926E-1
8.375851090E-1,-1.117562652E0,-6.375419497E-1,2.697702646E-1
8.474999010E-1,-1.080279469E0,-6.982602477E-1,2.623136342E-1
8.574380780E-1,-1.085605621E0,-7.728265524E-1,2.964010835E-1
8.673762550E-1,-1.104779840E0,-7.685656548E-1,3.166405261E-1
8.773087550E-1,-1.118627787E0,-6.322157979E-1,3.326190114E-1
8.872469840E-1,-1.172954679E0,-4.053211510E-1,3.485974967E-1
8.971851610E-1,-1.226216316E0,-2.615146935E-1,3.454017937E-1
9.071333380E-1,-1.259238601E0,-2.221010923E-1,3.507279754E-1
9.170715150E-1,-1.280543208E0,-2.157096863E-1,3.848154247E-1
9.270096920E-1,-1.280543208E0,-1.507304758E-1,4.071853161E-1
9.369607860E-1,-1.269890904E0,-3.355484083E-2,4.039896131E-1
9.468989630E-1,-1.259238601E0,9.746882319E-2,3.709673882E-1
9.568371400E-1,-1.278412819E0,2.902759910E-1,2.964010835E-1
9.667596920E-1,-1.317826390E0,3.563204408E-1,2.623136342E-1
9.766978170E-1,-1.351913810E0,2.402100414E-1,2.367480397E-1
9.866359940E-1,-1.384936094E0,1.219691783E-1,1.696383655E-1
9.965530260E-1,-1.394523144E0,-1.331541315E-2,8.015878499E-2
1.006491255E0,-1.376414180E0,-1.720351279E-1,-3.062544949E-2
1.016429380E0,-1.395588398E0,-2.721670270E-1,-1.222354919E-1
1.026374953E0,-1.389196992E0,-3.414071798E-1,-1.328878254E-1
1.036313130E0,-1.430741072E0,-1.805569977E-1,-1.371487528E-1
1.046251359E0,-1.437132478E0,-1.699046642E-1,-7.536523789E-2
1.056186046E0,-1.446719646E0,-9.959928691E-2,3.222329915E-2
1.066124171E0,-1.459502339E0,2.503297664E-2,1.312899739E-1
1.076062296E0,-1.428610682E0,2.929390781E-2,1.898777932E-1
1.086016932E0,-1.393458009E0,-7.989247330E-3,2.186390758E-1
1.095955005E0,-1.419023514E0,1.438064594E-2,2.165086120E-1
1.105893130E0,-1.484002709E0,9.001219273E-2,1.760297567E-1
1.115844640E0,-1.487198472E0,3.728315700E-3,1.185071766E-1
1.125782765E0,-1.457371950E0,-1.544587873E-2,7.376738638E-2
1.135720838E0,-1.414762616E0,1.118494663E-2,4.500609636E-2
1.145633598E0,-1.397718906E0,3.994623944E-2,2.370143496E-2
1.155571723E0,-1.425414920E0,6.977276504E-2,-3.062544949E-2
1.165509848E0,-1.445654392E0,8.894696087E-2,-8.708280325E-2
1.175479588E0,-1.460567594E0,1.603175700E-1,-1.286268830E-1
1.185417661E0,-1.502111673E0,2.753627300E-1,-1.286268830E-1
1.195355786E0,-1.520220637E0,2.679060996E-1,-1.062569916E-1
1.205275369E0,-1.508503079E0,2.700365782E-1,-5.832150951E-2
1.215213442E0,-1.555373311E0,3.754946291E-1,-4.127778113E-2
1.225151567E0,-1.606504560E0,4.500609636E-1,-4.127778113E-2
1.235109380E0,-1.612895966E0,3.350157738E-1,-3.914731368E-2
1.245047505E0,-1.596917510E0,2.657756507E-1,-4.340824485E-2
1.254985578E0,-1.527677298E0,1.890788674E-1,-1.038602181E-2
1.264919015E0,-1.477611303E0,1.326215118E-1,-1.890788600E-2
1.274857088E0,-1.498916030E0,1.613828093E-1,3.462007269E-3
1.284795265E0,-1.505307436E0,1.762960702E-1,6.098458916E-2
1.294735473E0,-1.471220016E0,2.732322812E-1,1.376813650E-1
1.304673546E0,-1.448850036E0,3.307548463E-1,2.420742065E-1
1.314611671E0,-1.413697362E0,3.030588031E-1,2.442046702E-1
1.324535630E0,-1.387066603E0,3.275591433E-1,1.930734813E-1
1.334473703E0,-1.361500978E0,2.892107666E-1,1.451379955E-1
1.344411828E0,-1.341261506E0,2.753627300E-1,1.344856620E-1
1.354350578E0,-1.328478694E0,2.359491140E-1,1.089200750E-1
1.364288651E0,-1.326348305E0,2.210358530E-1,5.459319428E-2
1.374226776E0,-1.301847935E0,3.286243975E-1,5.672365800E-2
1.384179432E0,-1.234738231E0,3.030588031E-1,6.631075591E-2
1.394117557E0,-1.145258665E0,2.199706137E-1,3.648423031E-2
1.404055682E0,-1.091997027E0,2.881455421E-1,3.967992961E-2
1.413995473E0,-1.088801265E0,2.817541361E-1,6.418029219E-2
1.423933546E0,-9.971912503E-1,1.741656065E-1,-7.989247679E-4
1.433871671E0,-8.810808659E-1,8.575125784E-2,-6.258244067E-2
1.443798755E0,-8.171668649E-1,3.355484083E-2,-8.175663650E-2
1.453736828E0,-7.468615174E-1,2.183727734E-2,-9.666989744E-2
1.463674953E0,-6.456643939E-1,-2.663082443E-3,-9.347419441E-2
1.473621723E0,-5.593804717E-1,5.858781748E-3,-6.364767253E-2
1.483559848E0,-4.730966091E-1,4.420717061E-2,-2.956021577E-2
1.493497921E0,-3.761604130E-1,8.894696087E-2,-2.929390874E-3
1.503409692E0,-2.738980353E-1,7.829462737E-2,2.583190054E-2
1.513347817E0,-1.620485783E-1,3.568530455E-2,5.352795869E-2
1.523285942E0,-4.913387448E-2,-1.651111245E-2,7.376738638E-2
1.533226255E0,4.780233279E-2,-6.977276504E-2,7.802832127E-2
1.543164328E0,1.468690038E-1,-9.746882319E-2,6.950645149E-2
1.553102453E0,2.448704392E-1,-1.400781423E-1,5.033225939E-2
1.563053703E0,3.290238380E-1,-1.667089611E-1,2.689713426E-2
1.572991880E0,4.142425060E-1,-1.528609395E-1,2.476666868E-2
1.582930057E0,4.738955498E-1,-1.209039465E-1,2.583190054E-2
1.592864901E0,5.090482235E-1,-5.592473224E-2,7.722939365E-3
1.602803078E0,5.612446666E-1,5.326165119E-4,-2.103835158E-2
1.612741307E0,6.230281591E-1,3.994623944E-2,-5.619104207E-2
1.622690265E0,6.901378632E-1,9.107742459E-2,-8.814803511E-2
1.632628442E0,7.764217257E-1,1.081211492E-1,-1.190397888E-1
1.642566671E0,8.445966244E-1,8.255556226E-2,-1.467358470E-1
1.652490526E0,8.999887705E-1,3.675054014E-2,-1.680405140E-1
1.662428703E0,9.521851540E-1,-2.663082443E-3,-1.840189993E-1
1.672366932E0,9.947944880E-1,-2.396774292E-2,-1.882799417E-1
1.682312401E0,1.029947162E0,-4.420717061E-2,-1.882799417E-1
1.692250578E0,1.053382277E0,-5.698996782E-2,-1.904104054E-1
1.702188807E0,1.072556496E0,-5.912043154E-2,-1.914756298E-1
1.712130942E0,1.123687744E0,-6.338136643E-2,-1.957365721E-1
1.722069119E0,1.168427467E0,-7.829462737E-2,-2.074541301E-1
1.732007348E0,1.200384498E0,-1.006645188E-1,-2.074541301E-1
1.741923911E0,1.257907033E0,-1.251648813E-1,-1.999974996E-1
1.751862140E0,1.314364433E0,-1.336867511E-1,-1.936061084E-1
1.761800265E0,1.334603786E0,-1.358172148E-1,-1.936061084E-1
1.771746151E0,1.353778005E0,-1.517957002E-1,-2.021279633E-1
1.781684328E0,1.376147866E0,-1.486000121E-1,-2.127802968E-1
1.791622557E0,1.401713490E0,-1.134473160E-1,-2.223673910E-1
1.801580994E0,1.420887709E0,-8.788172156E-2,-2.181064636E-1
1.811519171E0,1.443257570E0,-1.091863886E-1,-1.989322603E-1
1.821457401E0,1.480540752E0,-1.699046642E-1,-1.797580719E-1
1.831370421E0,1.508236766E0,-2.327534109E-1,-1.786928326E-1
1.841308598E0,1.570020318E0,-2.508623898E-1,-1.850842386E-1
1.851246828E0,1.653108478E0,-2.306229472E-1,-1.872147024E-1
1.861211046E0,1.672282696E0,-2.252967805E-1,-1.840189993E-1
1.871149223E0,1.680804610E0,-2.412752807E-1,-1.701709777E-1
1.881087453E0,1.712761521E0,-2.561885417E-1,-1.648448110E-1
1.891013859E0,1.728740096E0,-2.753627300E-1,-1.669752747E-1
1.900952088E0,1.760697007E0,-2.838846147E-1,-1.829537749E-1
1.910890265E0,1.796914935E0,-2.412752807E-1,-2.074541301E-1
1.920805786E0,1.813958645E0,-1.709699035E-1,-2.170412242E-1
1.930744015E0,1.841654778E0,-1.326215118E-1,-2.063889056E-1
1.940682192E0,1.871614456E0,-1.571218669E-1,-1.904104054E-1
1.950632713E0,1.897179961E0,-1.400781423E-1,-1.818885356E-1
1.960570942E0,1.895049572E0,-6.551183015E-2,-1.882799417E-1
1.970509119E0,1.881201506E0,-3.462007269E-2,-1.946713328E-1
1.980436411E0,1.853372335E0,6.924014539E-3,-2.010627389E-1
1.990374692E0,1.820350051E0,6.231613085E-2,-2.095845938E-1
2.000312817E0,1.810763001E0,3.781577200E-2,-2.202369273E-1
2.010261984E0,1.837393761E0,-7.989247330E-3,-2.085193694E-1
2.020200213E0,1.847114086E0,-1.597849536E-3,-1.978670359E-1
2.030138390E0,1.840589523E0,5.485950038E-2,-1.840189993E-1
2.040070213E0,1.828871965E0,1.102516204E-1,-1.754971445E-1
2.050008442E0,1.806502104E0,1.411433816E-1,-1.872147024E-1
2.059946671E0,1.796914935E0,1.464695334E-1,-2.191716880E-1
2.069880890E0,1.779871225E0,1.624480337E-1,-2.777595222E-1
2.079819015E0,1.754305601E0,1.571218669E-1,-3.299559355E-1
2.089757140E0,1.746849060E0,1.358172148E-1,-3.672390878E-1
2.099694380E0,1.759631753E0,1.368824393E-1,-4.077179432E-1
2.109632557E0,1.774545074E0,1.635132730E-1,-4.492620230E-1
2.119570630E0,1.779871225E0,2.221010923E-1,-4.716319144E-1
2.129535838E0,1.772414565E0,3.051892519E-1,-4.801537991E-1
2.139473963E0,1.742588043E0,3.882774413E-1,-5.003932118E-1
2.149412088E0,1.734066248E0,3.967992961E-1,-5.174369216E-1
2.159323703E0,1.750044703E0,3.211677670E-1,-5.153064728E-1
2.169261880E0,1.762827516E0,3.350157738E-1,-5.270240307E-1
2.179200005E0,1.784132123E0,3.669727743E-1,-5.483286977E-1
2.189146098E0,1.821415305E0,3.744294047E-1,-5.653724074E-1
2.199084223E0,1.842853189E0,3.680379987E-1,-5.856118798E-1
2.209022348E0,1.835263371E0,4.585828185E-1,-6.335473657E-1
2.218949171E0,1.840589523E0,4.607132971E-1,-6.537867785E-1
2.228887296E0,1.859896898E0,4.063864052E-1,-6.782871485E-1
2.238825421E0,1.885462403E0,3.669727743E-1,-7.134398222E-1
2.248775786E0,1.911028028E0,3.403419554E-1,-7.379401922E-1
2.258713859E0,1.887592912E0,4.383433759E-1,-7.762885690E-1
2.268651984E0,1.827806711E0,4.223648906E-1,-7.539186478E-1
2.278603911E0,1.782001734E0,3.179720640E-1,-6.900047064E-1
2.288542036E0,1.760697007E0,2.700365782E-1,-6.516563296E-1
2.298480161E0,1.738327146E0,1.720351279E-1,-5.962641835E-1
2.308400890E0,1.729805231E0,1.262301207E-1,-5.834813714E-1
2.318339015E0,1.714892030E0,1.049254537E-1,-5.930684805E-1
2.328277192E0,1.638195276E0,4.740286991E-2,-5.419372916E-1
2.338213651E0,1.531671882E0,-1.651111245E-2,-4.748276174E-1
2.348151776E0,1.436866164E0,-3.462007269E-2,-4.450010955E-1
2.358089901E0,1.352712750E0,1.331541315E-2,-4.300878346E-1
2.368041255E0,1.261102796E0,-1.757634431E-2,-3.842828274E-1
2.377979328E0,1.198253989E0,-1.187734827E-1,-3.608476818E-1
2.387917505E0,1.158840418E0,-2.061225921E-1,-3.736304939E-1
2.397843598E0,1.053382277E0,-2.817541361E-1,-3.267602324E-1
2.407781776E0,8.840102553E-1,-2.689713240E-1,-2.500634491E-1
2.417719848E0,7.242252827E-1,-2.338186502E-1,-1.754971445E-1
2.427656098E0,6.049191952E-1,-2.434057444E-1,-1.211702600E-1
2.437594223E0,5.154396296E-1,-2.742975056E-1,-8.388710022E-2
2.447532401E0,4.355471432E-1,-2.913412452E-1,-5.406057462E-2
2.457490005E0,3.663070202E-1,-2.402100414E-1,-5.193011090E-2
2.467428130E0,2.842840552E-1,-2.029268891E-1,-5.938674137E-2
2.477366255E0,1.948044896E-1,-1.454043090E-1,-8.069140464E-2
2.487284223E0,9.786828607E-2,-9.320788831E-2,-1.019960642E-1
2.497222401E0,-8.655018173E-3,-1.027949899E-1,-1.073222235E-1
2.507160526E0,-1.055912226E-1,-6.870753318E-2,-9.027849883E-2
2.517135630E0,-1.790923029E-1,5.805519968E-2,-5.193011090E-2
2.527073755E0,-2.259625494E-1,2.135792226E-1,-1.864157850E-3
2.537011880E0,-2.355496585E-1,2.732322812E-1,4.820179567E-2
2.546919901E0,-2.355496585E-1,2.114487588E-1,9.294158220E-2
2.556857973E0,-2.547238469E-1,1.283605844E-1,1.280942708E-1
2.566796151E0,-2.983984053E-1,1.091863886E-1,1.707035899E-1
2.576753598E0,-3.548557460E-1,1.240996495E-1,2.165086120E-1
2.586691828E0,-4.400743842E-1,1.262301207E-1,2.719007432E-1
2.596630057E0,-5.434020162E-1,1.379476786E-1,3.336842358E-1
2.606554015E0,-6.563166976E-1,1.922745556E-1,3.848154247E-1
2.616492192E0,-7.734923363E-1,2.998631001E-1,4.264926612E-1
2.626430473E0,-8.864070177E-1,4.703003764E-1,4.659062922E-1
2.636384067E0,-9.939955473E-1,6.300853491E-1,5.074504018E-1
2.646322296E0,-1.103714585E0,6.705641747E-1,5.319507122E-1
2.656260526E0,-1.221955419E0,6.013240218E-1,5.319507122E-1
2.666167192E0,-1.346587658E0,5.416709781E-1,5.181027055E-1
2.676105421E0,-1.484002709E0,4.756265581E-1,4.904066622E-1
2.686043703E0,-1.629939675E0,3.925383687E-1,4.509930313E-1
2.696018807E0,-1.730071545E0,4.117125571E-1,4.050548673E-1
2.705957036E0,-1.659766197E0,2.679060996E-1,3.517931998E-1
2.715895265E0,-1.436067224E0,-2.609820850E-2,3.038577139E-1
2.725808494E0,-1.319956899E0,-1.475347728E-1,2.591179311E-1
2.735746671E0,-1.364696622E0,-1.970681176E-2,1.781602204E-1
2.745684953E0,-1.421154022E0,1.688394397E-1,1.557903290E-1
2.755639484E0,-1.433936834E0,5.592473224E-2,2.175738513E-1
2.765577713E0,-1.443523884E0,-3.051892519E-1,2.047910541E-1
2.775515942E0,-1.494655132E0,-6.386072040E-1,1.983996481E-1
2.785423651E0,-1.591591239E0,-7.643046975E-1,3.091838956E-1
2.795361880E0,-1.684266567E0,-7.110430598E-1,4.776238501E-1
2.805300161E0,-1.704506040E0,-5.161054134E-1,6.619091630E-1
2.815239432E0,-1.636331081E0,-1.454043090E-1,7.939980626E-1
2.825177661E0,-1.577743292E0,5.592473224E-2,8.302159905E-1
2.835115942E0,-1.591591239E0,9.533835202E-2,7.247579098E-1
2.845097713E0,-1.620352626E0,1.411433816E-1,5.234288573E-1
2.855035942E0,-1.678940415E0,2.609820850E-2,4.296883643E-1
2.864974223E0,-1.731136799E0,-2.711018026E-1,5.031894445E-1
2.874895109E0,-1.697049379E0,-4.500609636E-1,6.310173869E-1
2.884833338E0,-1.660831451E0,-2.625799477E-1,6.597787142E-1
2.894771567E0,-1.644852996E0,-1.011971384E-2,6.033213735E-1
2.904679848E0,-1.580938935E0,-3.781577200E-2,5.958647132E-1
2.914618078E0,-1.506372690E0,-1.656437367E-1,6.640396118E-1
2.924556359E0,-1.479741812E0,-1.784265339E-1,7.130403519E-1
2.934529588E0,-1.534068704E0,-1.326215118E-1,6.885399818E-1
2.944467817E0,-1.567090988E0,-2.647103965E-1,6.363435984E-1
2.954406046E0,-1.499981284E0,-4.905398190E-1,5.500596762E-1
2.964329588E0,-1.455241442E0,-6.567161679E-1,4.158403277E-1
2.974267765E0,-1.514894485E0,-7.856093645E-1,3.091838956E-1
2.984206046E0,-1.572417140E0,-8.250229955E-1,2.537917793E-1
2.994144744E0,-1.603308797E0,-6.375419497E-1,2.090519816E-1
3.004082973E0,-1.616091609E0,-4.724308550E-1,1.792254597E-1
3.014021203E0,-1.615026474E0,-4.234301150E-1,1.792254597E-1
3.023977817E0,-1.629939675E0,-3.254286945E-1,2.601831555E-1
3.033916046E0,-1.617156863E0,-3.030588031E-1,3.464670479E-1
3.043854276E0,-1.548982024E0,-3.403419554E-1,3.677717149E-1
3.053790994E0,-1.470154762E0,-2.924064696E-1,3.336842358E-1
3.063729223E0,-1.446719646E0,-2.892107666E-1,2.474003732E-1
3.073667453E0,-1.403045058E0,-3.264939189E-1,1.419423074E-1
3.083585786E0,-1.330609202E0,-2.508623898E-1,1.057243794E-1
3.093523911E0,-1.373218536E0,-2.396774292E-2,1.099853069E-1
3.103462088E0,-1.442458630E0,1.059906855E-1,9.613727778E-2
3.113412765E0,-1.495720267E0,7.935985923E-2,9.507204592E-2
3.123350890E0,-1.571351886E0,1.368824393E-1,1.046591476E-1
3.133289067E0,-1.604374051E0,2.327534109E-1,1.067896113E-1
3.143215421E0,-1.580938935E0,2.870802879E-1,1.504641622E-1
3.153153546E0,-1.512764096E0,2.870802879E-1,1.813559234E-1
3.163091723E0,-1.508503079E0,2.934716940E-1,1.419423074E-1
3.173048651E0,-1.498916030E0,2.359491140E-1,9.613727778E-2
3.182986776E0,-1.470154762E0,1.443390697E-1,3.328853101E-2
3.192924953E0,-1.458437204E0,1.592523307E-1,-4.021254554E-2
3.202857713E0,-1.468024254E0,1.528609395E-1,-3.488638252E-2
3.212795838E0,-1.463763356E0,1.890788674E-1,1.198387146E-2
3.222734015E0,-1.447784781E0,1.155777797E-1,2.583190054E-2
3.232652765E0,-1.458437204E0,7.935985923E-2,3.462007269E-3
3.242590890E0,-1.448850036E0,2.487319112E-1,4.527240526E-3
3.252529067E0,-1.399849296E0,2.561885417E-1,5.672365800E-2
3.262489484E0,-1.367892385E0,2.093182951E-1,8.974587917E-2
3.272427609E0,-1.377479434E0,3.733641803E-1,1.185071766E-1
3.282365786E0,-1.427545428E0,4.585828185E-1,1.430075318E-1
3.292301463E0,-1.458437204E0,2.711018026E-1,1.035939083E-1
3.302239588E0,-1.450980544E0,2.625799477E-1,3.009283356E-2
3.312177765E0,-1.428610682E0,3.414071798E-1,2.050573565E-2
3.322125994E0,-1.445654392E0,3.179720640E-1,6.950645149E-2
3.332064119E0,-1.447784781E0,1.837527007E-1,6.524552405E-2
3.342002348E0,-1.435002089E0,1.219691783E-1,3.861469775E-2
3.351911307E0,-1.431806326E0,1.603175700E-1,3.541899845E-2
3.361849432E0,-1.426480174E0,8.681648970E-2,3.754946589E-2
3.371787609E0,-1.380675197E0,1.006645188E-1,5.139749497E-2
3.381713078E0,-1.358305216E0,2.402100414E-1,1.025286764E-1
3.391651255E0,-1.361500978E0,3.424724042E-1,1.770949960E-1
3.401589432E0,-1.360435724E0,2.412752807E-1,1.994648874E-1
3.411547401E0,-1.344457269E0,2.806889117E-1,1.600512564E-1
3.421485526E0,-1.373218536E0,3.211677670E-1,8.974587917E-2
3.431423703E0,-1.370022774E0,1.581871063E-1,-4.979964346E-2
3.441359692E0,-1.328478694E0,1.304910481E-1,-1.552577168E-1
3.451297817E0,-1.307174087E0,1.773612946E-1,-1.701709777E-1
3.461235994E0,-1.254977703E0,7.935985923E-2,-1.957365721E-1
3.471187505E0,-1.202781200E0,5.059856921E-2,-2.447372824E-1
3.481125682E0,-1.161237121E0,1.262301207E-1,-1.669752747E-1
3.491063807E0,-1.117562652E0,1.358172148E-1,-9.880036116E-2
3.500982869E0,-1.096257925E0,2.380795777E-1,-1.318225861E-1
3.510921046E0,-1.072822809E0,4.010602236E-1,-1.499315500E-1
3.520859171E0,-1.002517462E0,3.818860352E-1,-9.240896255E-2
3.530802348E0,-9.471253157E-1,2.796236575E-1,-4.873441160E-2
3.540740473E0,-8.842765689E-1,3.062545061E-1,-4.021254554E-2
3.550678703E0,-7.905360460E-1,1.773612946E-1,-3.488638252E-2
3.560620109E0,-6.584471464E-1,-3.035914153E-2,-7.430000603E-2
3.570558234E0,-5.476629138E-1,-1.006645188E-1,-1.041265279E-1
3.580496411E0,-4.805532396E-1,-1.166430190E-1,-9.560466558E-2
3.590427609E0,-4.209001958E-1,-9.533835202E-2,-9.027849883E-2
3.600365734E0,-3.218335211E-1,-9.107742459E-2,-1.019960642E-1
3.610303911E0,-2.153102309E-1,-8.042509109E-2,-9.880036116E-2
3.620238755E0,-1.162435561E-1,-4.740286991E-2,-8.495233208E-2
3.630176932E0,-2.037258074E-2,-2.503297664E-2,-7.110430300E-2
3.640115109E0,6.804175675E-2,-6.924014539E-3,-5.406057462E-2
3.650057140E0,1.415428370E-1,-5.326165119E-4,-4.234301299E-2
3.659995265E0,2.214353085E-1,1.970681176E-2,-5.938674137E-2
3.669933442E0,3.141105771E-1,2.503297664E-2,-7.536523789E-2
3.679892192E0,4.067858756E-1,-2.663082443E-3,-7.962616533E-2
3.689830317E0,5.133091807E-1,-3.462007269E-2,-8.495233208E-2
3.699768494E0,6.102453470E-1,-5.592473224E-2,-9.347419441E-2
3.709706776E0,6.773550510E-1,-5.912043154E-2,-9.773512930E-2
3.719644848E0,7.710955739E-1,-4.101147130E-2,-9.773512930E-2
3.729583026E0,8.659012914E-1,-3.568530455E-2,-8.175663650E-2
3.739488234E0,9.372718930E-1,-3.781577200E-2,-4.447348043E-2
3.749426411E0,1.017164350E0,-6.870753318E-2,-1.677742042E-2
3.759364536E0,1.076817393E0,-1.027949899E-1,-7.190322969E-3
3.769332192E0,1.126883388E0,-1.262301207E-1,2.663082560E-4
3.779270317E0,1.187601686E0,-1.581871063E-1,2.663082560E-4
3.789208494E0,1.246189475E0,-1.358172148E-1,-2.929390874E-3
3.799133963E0,1.296255469E0,-1.187734827E-1,-1.864157850E-3
3.809072088E0,1.338864803E0,-1.166430190E-1,6.657706574E-3
3.819010265E0,1.379343629E0,-1.155777797E-1,1.837527007E-2
3.828949432E0,1.399582982E0,-1.113168523E-1,3.115806542E-2
3.838887557E0,1.383604527E0,-8.468602598E-2,4.820179567E-2
3.848825734E0,1.385735035E0,-8.149032295E-2,5.672365800E-2
3.858782973E0,1.394256830E0,-1.027949899E-1,4.926702753E-2
3.868721098E0,1.383604527E0,-8.788172156E-2,3.541899845E-2
3.878659276E0,1.381474137E0,-1.134473160E-1,1.624480449E-2
3.888571932E0,1.394256830E0,-1.901440918E-1,-1.358172111E-2
3.898510057E0,1.412365794E0,-2.146444470E-1,-4.127778113E-2
3.908448182E0,1.405974388E0,-1.954702586E-1,-6.045197323E-2
3.918411359E0,1.391061187E0,-1.816222370E-1,-6.045197323E-2
3.928349484E0,1.386800289E0,-1.954702586E-1,-5.193011090E-2
3.938287661E0,1.398517847E0,-2.167749256E-1,-4.553871229E-2
3.948208807E0,1.411300659E0,-2.114487588E-1,-5.938674137E-2
3.958146932E0,1.415561557E0,-2.327534109E-1,-7.643046975E-2
3.968085109E0,1.442192316E0,-2.647103965E-1,-8.708280325E-2
3.978025578E0,1.463497043E0,-2.785584331E-1,-1.158440933E-1
3.987963703E0,1.472018838E0,-2.178401500E-1,-1.531272531E-1
3.997901880E0,1.474149346E0,-1.944050342E-1,-1.765623689E-1
4.007867088E0,1.457105637E0,-1.517957002E-1,-1.957365721E-1
4.017805213E0,1.474149346E0,-8.255556226E-2,-1.978670359E-1
4.027743338E0,1.524215341E0,-9.427312016E-2,-2.106498331E-1
4.037650421E0,1.529541492E0,-1.326215118E-1,-2.468677461E-1
4.047588546E0,1.521019578E0,-1.603175700E-1,-2.607157826E-1
4.057526723E0,1.566824675E0,-2.146444470E-1,-2.543243766E-1
4.067451932E0,1.605172992E0,-1.954702586E-1,-2.383458912E-1
4.077390109E0,1.619021058E0,-1.486000121E-1,-2.287587970E-1
4.087328286E0,1.642456174E0,-1.422086060E-1,-2.383458912E-1
4.097280369E0,1.656304240E0,-1.912093312E-1,-2.489982247E-1
4.107218546E0,1.641390920E0,-2.178401500E-1,-2.489982247E-1
4.117156723E0,1.646717072E0,-1.496652365E-1,-2.181064636E-1
4.127101567E0,1.685065508E0,-7.403369248E-2,-1.946713328E-1
4.137039744E0,1.685065508E0,-3.355484083E-2,-2.031932026E-1
4.146977921E0,1.661630392E0,-1.118494663E-2,-2.159759998E-1
4.156920421E0,1.674413204E0,-6.338136643E-2,-2.202369273E-1
4.166858598E0,1.704239726E0,-1.656437367E-1,-2.181064636E-1
4.176796776E0,1.726609588E0,-2.338186502E-1,-2.447372824E-1
4.186705213E0,1.754305601E0,-2.199706137E-1,-2.724333405E-1
4.196643390E0,1.778805971E0,-1.517957002E-1,-2.777595222E-1
4.206581567E0,1.787327886E0,-3.888100386E-2,-3.139774203E-1
4.216548130E0,1.759631753E0,4.527240247E-2,-3.715000153E-1
4.226486307E0,1.731935740E0,9.001219273E-2,-4.183702767E-1
4.236424484E0,1.754305601E0,1.794917583E-1,-4.343487620E-1
4.246357348E0,1.809697747E0,2.615146935E-1,-4.503272474E-1
4.256295473E0,1.857766390E0,3.328853250E-1,-5.067846179E-1
4.266233651E0,1.865223050E0,3.201025128E-1,-5.238283277E-1
4.276179848E0,1.879070997E0,2.774932086E-1,-5.280892849E-1
4.286118026E0,1.913158536E0,2.892107666E-1,-5.685681105E-1
4.296056203E0,1.899310470E0,3.201025128E-1,-5.824161768E-1
4.305995786E0,1.891853809E0,3.414071798E-1,-6.005251408E-1
4.315933963E0,1.900375724E0,3.019935489E-1,-6.133078933E-1
4.325872140E0,1.907832384E0,2.700365782E-1,-6.069164872E-1
4.335808130E0,1.948311210E0,2.657756507E-1,-6.303516626E-1
4.345746307E0,2.005833864E0,2.529928386E-1,-6.580476761E-1
4.355684484E0,2.045247316E0,3.222329915E-1,-6.729609370E-1
4.365617088E0,2.078269720E0,3.744294047E-1,-6.921351552E-1
4.375555265E0,2.126205206E0,4.255605936E-1,-7.485924959E-1
4.385493442E0,2.164553404E0,3.872122169E-1,-7.635057569E-1
4.395416151E0,2.165618658E0,3.509942889E-1,-7.326140404E-1
4.405354328E0,2.100639582E0,5.193011165E-1,-6.761566401E-1
4.415292453E0,2.054834604E0,5.864107609E-1,-5.920032263E-1
4.425249380E0,2.078269720E0,4.766917825E-1,-4.971975088E-1
4.435187505E0,2.144314051E0,3.307548463E-1,-4.300878346E-1
4.445125734E0,2.247641563E0,2.114487588E-1,-4.162397981E-1
4.455079484E0,2.266815901E0,2.093182951E-1,-4.151745737E-1
4.465017661E0,2.201836586E0,2.593842447E-1,-4.205007255E-1
4.474955838E0,2.072943449E0,2.977326214E-1,-3.981308341E-1
4.484872869E0,1.958963513E0,2.370143533E-1,-3.544562757E-1
4.494810994E0,1.917419434E0,1.496652365E-1,-3.043903410E-1
4.504749171E0,1.918484688E0,1.059906855E-1,-2.788247466E-1
4.514695942E0,1.915288925E0,3.142437339E-2,-2.979989350E-1
4.524634119E0,1.851374984E0,-6.977276504E-2,-2.660419345E-1
4.534572296E0,1.768153667E0,-1.379476786E-1,-2.266283184E-1
4.544489328E0,1.663760781E0,-1.944050342E-1,-2.095845938E-1
4.554427505E0,1.483736396E0,-2.103835195E-1,-2.106498331E-1
4.564365734E0,1.238732815E0,-1.976007223E-1,-2.213021666E-1
4.574301723E0,1.006512046E0,-1.688394397E-1,-2.511286736E-1
4.584239848E0,7.966611385E-1,-2.625799477E-1,-2.287587970E-1
4.594178026E0,6.230281591E-1,-3.467333615E-1,-2.085193694E-1
4.604134692E0,4.941349626E-1,-3.520595133E-1,-2.298240215E-1
4.614072869E0,3.790898025E-1,-3.691032529E-1,-2.713681161E-1
4.624011046E0,2.512618303E-1,-4.074516296E-1,-3.193036020E-1
4.633945369E0,1.095858440E-1,-4.287562966E-1,-3.683043122E-1
4.643883598E0,-3.635107726E-2,-4.458000064E-1,-3.810871243E-1
4.653821776E0,-1.673747450E-1,-4.191691875E-1,-3.629781604E-1
4.663767140E0,-2.185059190E-1,-2.870802879E-1,-3.363473415E-1
4.673705317E0,-1.940055639E-1,-1.539261788E-1,-2.873466015E-1
4.683643546E0,-1.215697154E-1,-8.255556226E-2,-2.276935577E-1
4.693563859E0,-5.019910634E-2,-4.633763805E-2,-1.701709777E-1
4.703502036E0,-1.291595027E-2,-3.035914153E-2,-1.201050207E-1
4.713440213E0,1.478010789E-2,-3.142437339E-2,-5.725627393E-2
4.723384848E0,3.928046674E-2,4.793548491E-3,-1.864157850E-3
4.733323026E0,9.254211932E-2,3.462007269E-2,3.967992961E-2
4.743261255E0,1.607170254E-1,4.207670316E-2,8.015878499E-2
4.753182869E0,2.225005478E-1,7.083799690E-2,1.217028722E-1
4.763121098E0,2.640446424E-1,1.464695334E-1,1.536598653E-1
4.773059276E0,2.768274248E-1,2.263620198E-1,1.696383655E-1
4.783027557E0,2.651098669E-1,2.806889117E-1,1.760297567E-1
4.792965786E0,2.395442724E-1,3.051892519E-1,1.707035899E-1
4.802903963E0,1.894783229E-1,2.924064696E-1,1.547250897E-1
4.812844171E0,1.021292135E-1,2.508623898E-1,1.323551983E-1
4.822782348E0,-1.398118306E-2,1.880136281E-1,1.131810099E-1
4.832720578E0,-1.439396143E-1,1.368824393E-1,1.046591476E-1
4.842628286E0,-2.802894413E-1,1.155777797E-1,1.142462417E-1
4.852566463E0,-4.230306745E-1,9.853405505E-2,1.536598653E-1
4.862504640E0,-5.721632838E-1,8.788172156E-2,2.154433727E-1
4.872459536E0,-7.159697413E-1,1.081211492E-1,2.804225981E-1
4.882397713E0,-8.619066477E-1,1.677742004E-1,3.422061205E-1
4.892335942E0,-1.016365409E0,2.732322812E-1,4.019923210E-1
4.902255057E0,-1.181476593E0,3.989297748E-1,4.488625526E-1
4.912193286E0,-1.348718166E0,4.745613039E-1,4.829500318E-1
4.922131463E0,-1.498916030E0,5.310186744E-1,5.138418078E-1
4.932097036E0,-1.602243662E0,5.842803121E-1,5.404726267E-1
4.942035265E0,-1.654440045E0,6.109111309E-1,5.681686401E-1
4.951973442E0,-1.708766937E0,6.567161679E-1,5.894733071E-1
4.961912609E0,-1.757767677E0,6.801512837E-1,5.884081125E-1
4.971850838E0,-1.742854357E0,5.608451962E-1,5.852124095E-1
4.981789015E0,-1.642722487E0,3.648423254E-1,5.692338943E-1
4.991706828E0,-1.533003449E0,2.327534109E-1,4.914718866E-1
5.001645005E0,-1.473350406E0,1.592523307E-1,3.677717149E-1
5.011583234E0,-1.424349666E0,1.145125479E-1,2.921401560E-1
5.021514223E0,-1.373218536E0,4.420717061E-2,2.921401560E-1
5.031452505E0,-1.340196252E0,-4.740286991E-2,2.900096774E-1
5.041390682E0,-1.345522404E0,-1.486000121E-1,2.889444530E-1
5.051346255E0,-1.391327500E0,-2.061225921E-1,3.358147144E-1
5.061284484E0,-1.519155502E0,-1.762960702E-1,4.019923210E-1
5.071222661E0,-1.723680139E0,-8.788172156E-2,4.733629227E-1
5.081159171E0,-1.865356207E0,-3.035914153E-2,5.734948516E-1
5.091097348E0,-1.874943256E0,-1.757634431E-2,6.853442788E-1
5.101035578E0,-1.793985605E0,2.503297664E-2,7.513887286E-1
5.110967348E0,-1.680005670E0,4.314193875E-2,7.652367949E-1
5.120905473E0,-1.612895966E0,3.142437339E-2,7.535192370E-1
5.130843598E0,-1.646983385E0,-1.970681176E-2,7.513887286E-1
5.140772661E0,-1.726875901E0,-1.656437367E-1,7.407364249E-1
5.150710838E0,-1.741789103E0,-3.339505494E-1,6.693658233E-1
5.160649015E0,-1.701310277E0,-4.127778113E-1,5.681686401E-1
5.170592296E0,-1.681070924E0,-3.509942889E-1,5.276898146E-1
5.180530421E0,-1.670418501E0,-1.347519755E-1,5.830819011E-1
5.190468598E0,-1.649113894E0,7.722939551E-2,6.555177569E-1
5.200422401E0,-1.707701683E0,1.091863886E-1,6.555177569E-1
5.210360578E0,-1.780137539E0,-1.283605844E-1,6.043865681E-1
5.220298651E0,-1.747115254E0,-4.564523399E-1,5.585815907E-1
5.230228755E0,-1.609700203E0,-6.897383928E-1,5.564510822E-1
5.240166880E0,-1.476546168E0,-7.387390733E-1,5.852124095E-1
5.250105005E0,-1.443523884E0,-5.672366023E-1,5.511249304E-1
5.260070786E0,-1.548982024E0,-3.201025128E-1,4.477973282E-1
5.270008963E0,-1.680005670E0,-2.039921284E-1,3.560541272E-1
5.279947088E0,-1.751376271E0,-2.860150635E-1,3.251623809E-1
5.289845369E0,-1.746050119E0,-3.659075499E-1,3.549889028E-1
5.299783494E0,-1.673614264E0,-3.456681073E-1,3.762935698E-1
5.309721619E0,-1.622483015E0,-3.254286945E-1,3.741630912E-1
5.319671984E0,-1.571351886E0,-3.637770712E-1,3.667064607E-1
5.329610161E0,-1.479741812E0,-4.436695576E-1,2.814878225E-1
5.339548286E0,-1.422219276E0,-5.139749050E-1,1.323551983E-1
5.349472609E0,-1.465893745E0,-3.435376585E-1,5.592473317E-3
5.359410786E0,-1.559634328E0,-6.657706201E-2,-9.240896255E-2
5.369348859E0,-1.623548269E0,1.011971384E-2,-1.360835135E-1
5.379306880E0,-1.670418501E0,9.853405505E-2,-1.190397888E-1
5.389245005E0,-1.698114634E0,1.230344176E-1,-7.216953486E-2
5.399183130E0,-1.698114634E0,1.539261788E-1,-3.701684624E-2
5.409138182E0,-1.680005670E0,1.997311860E-1,4.287562892E-2
5.419076307E0,-1.657635689E0,2.913412452E-1,1.462032348E-1
5.429014432E0,-1.628874421E0,3.158415854E-1,2.101172209E-1
5.438933234E0,-1.628874421E0,3.243634701E-1,2.239652425E-1
5.448871359E0,-1.622483015E0,2.647103965E-1,1.600512564E-1
5.458809536E0,-1.579873681E0,8.575125784E-2,4.926702753E-2
5.468746463E0,-1.518090248E0,-1.922745556E-1,-8.601756394E-2
5.478684640E0,-1.487198472E0,-1.965354979E-1,-2.223673910E-1
5.488622713E0,-1.511698842E0,-1.944050342E-1,-2.458025217E-1
5.498572713E0,-1.588395596E0,-1.006645188E-1,-1.861494780E-1
5.508510890E0,-1.606504560E0,4.207670316E-2,-8.708280325E-2
5.518449015E0,-1.597982645E0,1.272953451E-1,-4.447348043E-2
5.528385682E0,-1.571351886E0,2.412752807E-1,-8.388710022E-2
5.538323807E0,-1.591591239E0,3.978645205E-1,-9.453943372E-2
5.548261932E0,-1.645918131E0,6.055849791E-1,-6.364767253E-2
5.558179223E0,-1.673614264E0,5.576494932E-1,-6.151720881E-2
5.568117401E0,-1.692788482E0,5.533885360E-1,-9.347419441E-2
5.578055526E0,-1.665092349E0,6.396724582E-1,-4.979964346E-2
5.587994796E0,-1.633135438E0,6.748251319E-1,-3.275591508E-2
5.597932921E0,-1.722615004E0,5.704323053E-1,-8.388710022E-2
5.607871098E0,-1.780137539E0,5.331491232E-1,-1.723014414E-1
5.617845473E0,-1.762028575E0,4.681699276E-1,-2.394111156E-1
5.627783755E0,-1.729006410E0,3.264939189E-1,-2.468677461E-1
5.637721984E0,-1.658700943E0,2.519276142E-1,-2.319544852E-1
5.647638963E0,-1.616091609E0,2.274272442E-1,-1.776276082E-1
5.657577192E0,-1.692788482E0,3.041240275E-1,-9.666989744E-2
5.667515473E0,-1.770550489E0,3.573856652E-1,-8.601756394E-2
5.677460213E0,-1.773746133E0,4.575175941E-1,-1.137136221E-1
5.687398494E0,-1.778007030E0,5.043878555E-1,-9.773512930E-2
5.697336723E0,-1.795050740E0,4.447347820E-1,-9.347419441E-2
5.707273598E0,-1.808898807E0,5.214315653E-1,-7.430000603E-2
5.717211880E0,-1.819551110E0,4.745613039E-1,-5.512581021E-2
5.727150109E0,-1.800377011E0,4.884093404E-1,-3.914731368E-2
5.737103859E0,-1.793985605E0,4.553871155E-1,7.722939365E-3
5.747042140E0,-1.709832191E0,3.765598834E-1,4.074516147E-2
5.756980421E0,-1.650179148E0,3.126458824E-1,3.009283356E-2
5.766885265E0,-1.674679518E0,2.519276142E-1,-6.151720881E-2
5.776823494E0,-1.594787002E0,1.805569977E-1,-1.339530498E-1
5.786761776E0,-1.470154762E0,1.006645188E-1,-1.307573467E-1
5.796723390E0,-1.442458630E0,1.560566425E-1,-8.814803511E-2
5.806661671E0,-1.384936094E0,1.741656065E-1,-6.684337556E-2
5.816599901E0,-1.314630747E0,1.933397949E-1,-2.849498391E-2
5.826504015E0,-1.274151802E0,1.805569977E-1,1.304910425E-2
5.836442296E0,-1.125019193E0,1.336867511E-1,-2.929390874E-3
5.846380578E0,-9.599081278E-1,5.059856921E-2,-3.169068322E-2
5.856345526E0,-8.523195982E-1,5.166380107E-2,-6.258244067E-2
5.866283807E0,-7.031869292E-1,5.858781748E-3,-8.069140464E-2
5.876222036E0,-5.157059431E-1,-7.722939551E-2,-7.643046975E-2
5.886141151E0,-3.953346014E-1,-5.805519968E-2,-6.258244067E-2
5.896079484E0,-3.015941083E-1,-6.924014539E-3,-4.340824485E-2
5.906017713E0,-1.822880059E-1,1.438064594E-2,-8.255556226E-3
5.915981098E0,-5.552527308E-2,3.248960897E-2,-2.929390874E-3
5.925919328E0,8.721595258E-2,2.183727734E-2,-1.358172111E-2
5.935857609E0,2.203700840E-1,5.326165119E-4,-1.145125460E-2
5.945763130E0,3.524589837E-1,3.728315700E-3,-1.358172111E-2
5.955701411E0,4.920045137E-1,-1.757634431E-2,-1.677742042E-2
5.965639692E0,6.091801524E-1,-2.503297664E-2,-1.358172111E-2
5.975595109E0,7.018554211E-1,-1.544587873E-2,-5.059856921E-3
5.985533338E0,7.977263927E-1,-1.011971384E-2,1.331541222E-3
5.995471619E0,8.872059584E-1,-4.793548491E-3,-7.989247679E-4
6.005401307E0,9.617722631E-1,1.597849536E-3,-1.784265228E-2
6.015339536E0,1.064034581E0,-1.225017942E-2,-4.234301299E-2
6.025277817E0,1.167362213E0,-4.633763805E-2,-6.151720881E-2
6.035231307E0,1.242993832E0,-6.870753318E-2,-8.069140464E-2
6.045169588E0,1.312233925E0,-6.338136643E-2,-9.986559302E-2
6.055107869E0,1.369756460E0,-4.953333735E-2,-1.169093251E-1
6.065050942E0,1.400648236E0,-3.994623944E-2,-1.414096802E-1
6.074989223E0,1.435800910E0,-3.462007269E-2,-1.637795717E-1
6.084927505E0,1.476279855E0,-1.970681176E-2,-1.744319052E-1
6.094840630E0,1.510367274E0,3.728315700E-3,-1.669752747E-1
6.104778911E0,1.552976608E0,3.728315700E-3,-1.414096802E-1
6.114717192E0,1.587064028E0,-2.183727734E-2,-1.190397888E-1
6.124663546E0,1.621151567E0,-8.149032295E-2,-1.041265279E-1
6.134601671E0,1.652043223E0,-1.294258088E-1,-8.495233208E-2
6.144539796E0,1.672282696E0,-1.560566425E-1,-5.938674137E-2
6.154480161E0,1.680804610E0,-1.954702586E-1,-2.423405088E-2
6.164418286E0,1.694652557E0,-2.284924835E-1,9.853405878E-3
6.174356411E0,1.711696267E0,-2.402100414E-1,3.009283356E-2
6.184310890E0,1.718087673E0,-2.742975056E-1,3.115806542E-2
6.194249015E0,1.718087673E0,-3.211677670E-1,2.157096937E-2
6.204187192E0,1.714892030E0,-3.126458824E-1,3.462007269E-3
6.214113442E0,1.699978709E0,-2.615146935E-1,-9.320789017E-3
6.224051567E0,1.682934999E0,-2.497971505E-1,-5.059856921E-3
6.233989692E0,1.679739356E0,-2.487319112E-1,1.091863867E-2
6.243921098E0,1.675478339E0,-2.540580630E-1,3.115806542E-2
6.253859223E0,1.681869745E0,-2.764279842E-1,5.778888986E-2
6.263797348E0,1.685065508E0,-2.455362082E-1,7.802832127E-2
6.273725057E0,1.686130762E0,-2.007964253E-1,1.025286764E-1
6.283663234E0,1.698913574E0,-2.189053893E-1,1.248985752E-1
6.293601359E0,1.719152927E0,-2.018616647E-1,1.110505462E-1
6.303565942E0,1.731935740E0,-1.773612946E-1,1.003982127E-1
6.313504067E0,1.759631753E0,-2.050573528E-1,9.507204592E-2
6.323442244E0,1.764958024E0,-2.338186502E-1,7.270215452E-2
6.333380734E0,1.756436110E0,-2.380795777E-1,5.352795869E-2
6.343318859E0,1.771349311E0,-2.529928386E-1,3.541899845E-2
6.353256984E0,1.761762261E0,-2.221010923E-1,1.411433797E-2
6.363188234E0,1.759631753E0,-2.157096863E-1,2.663082560E-4
6.373126359E0,1.782001734E0,-1.624480337E-1,-1.890788600E-2
6.383064484E0,1.805436850E0,-9.107742459E-2,-3.808208182E-2
6.392991671E0,1.815023899E0,-5.485950038E-2,-4.234301299E-2
6.402929796E0,1.795849681E0,2.716344222E-2,-4.447348043E-2
6.412867921E0,1.756436110E0,8.468602598E-2,-5.512581021E-2
6.422818911E0,1.746849060E0,6.657706201E-2,-7.430000603E-2
6.432757036E0,1.747914195E0,3.248960897E-2,-1.009308323E-1
6.442695213E0,1.754305601E0,-7.989247330E-3,-1.158440933E-1
6.452623078E0,1.767088413E0,3.248960897E-2,-1.201050207E-1
6.462561203E0,1.778805971E0,6.764229387E-2,-1.339530498E-1
6.472499328E0,1.767088413E0,4.793548491E-3,-1.424749196E-1
6.482449119E0,1.744718552E0,5.858781748E-3,-1.552577168E-1
6.492387244E0,1.746849060E0,7.296846062E-2,-1.765623689E-1
6.502325369E0,1.744718552E0,1.038602218E-1,-2.085193694E-1
6.512262140E0,1.741522789E0,1.336867511E-1,-2.351501882E-1
6.522200265E0,1.733000994E0,1.645784974E-1,-2.734985650E-1
6.532138390E0,1.693587303E0,1.560566425E-1,-2.862813771E-1
6.542069380E0,1.678674102E0,1.528609395E-1,-2.894770801E-1
6.552007505E0,1.688261151E0,1.741656065E-1,-2.948032320E-1
6.561945630E0,1.711696267E0,2.029268891E-1,-3.288906813E-1
6.571879328E0,1.718087673E0,1.912093312E-1,-3.683043122E-1
6.581817453E0,1.690391660E0,1.581871063E-1,-4.109136462E-1
6.591755630E0,1.652043223E0,1.177082509E-1,-4.386096895E-1
6.601680317E0,1.628608108E0,7.722939551E-2,-4.439358711E-1
6.611618494E0,1.629673362E0,9.533835202E-2,-4.748276174E-1
6.621556619E0,1.631803870E0,1.081211492E-1,-4.535229504E-1
6.631499432E0,1.669087052E0,1.688394397E-1,-4.460663199E-1
6.641437505E0,1.721283436E0,2.828193605E-1,-4.620448351E-1
6.651375630E0,1.727674842E0,3.499290347E-1,-4.876104295E-1
6.661308911E0,1.690391660E0,3.211677670E-1,-4.833494723E-1
6.671247036E0,1.652043223E0,2.838846147E-1,-4.577838778E-1
6.681185109E0,1.606238246E0,2.284924835E-1,-3.821523488E-1
6.691140942E0,1.561498404E0,2.284924835E-1,-3.299559355E-1
6.701079067E0,1.541259050E0,2.679060996E-1,-3.171731234E-1
6.711017140E0,1.535932899E0,3.957340717E-1,-3.288906813E-1
6.720971255E0,1.533802390E0,3.115806580E-1,-2.830856740E-1
6.730909328E0,1.542324305E0,1.688394397E-1,-2.362154275E-1
6.740847453E0,1.559368014E0,9.853405505E-2,-2.404763550E-1
6.750761203E0,1.565759420E0,1.145125479E-1,-2.820204496E-1
6.760699276E0,1.587064028E0,1.997311860E-1,-3.587172329E-1
6.770637401E0,1.632869124E0,1.667089611E-1,-4.141093493E-1
6.780567140E0,1.689326406E0,3.142437339E-2,-4.396749437E-1
6.790505265E0,1.726609588E0,-3.675054014E-2,-4.577838778E-1
6.800443338E0,1.737261891E0,2.716344222E-2,-4.929365814E-1
6.810398338E0,1.784132123E0,9.746882319E-2,-5.270240307E-1
6.820336411E0,1.881201506E0,1.225017942E-2,-5.302197337E-1
6.830274536E0,1.974941969E0,-1.102516204E-1,-4.812190235E-1
6.840225213E0,2.023942709E0,-8.362079412E-2,-4.428706169E-1
6.850163286E0,2.017551422E0,-1.118494663E-2,-4.428706169E-1
6.860101411E0,1.986659646E0,-1.757634431E-2,-4.236964285E-1
6.870021098E0,1.953637362E0,-7.616416365E-2,-3.938699067E-1
6.879959171E0,1.923810840E0,-1.486000121E-1,-3.842828274E-1
6.889897296E0,1.881201506E0,-2.157096863E-1,-3.746957183E-1
6.899855890E0,1.790523529E0,-2.551233172E-1,-3.086512685E-1
6.909793963E0,1.686130762E0,-2.071878165E-1,-2.511286736E-1
6.919732088E0,1.601977348E0,-1.326215118E-1,-2.426068187E-1
6.929645057E0,1.499714971E0,-9.427312016E-2,-2.213021666E-1
6.939583130E0,1.391061187E0,-3.035914153E-2,-2.031932026E-1
6.949521255E0,1.310103416E0,2.822867595E-2,-2.181064636E-1
6.959473703E0,1.196123481E0,-1.331541315E-2,-2.063889056E-1
6.969411828E0,1.052317023E0,-2.609820850E-2,-2.308892608E-1
6.979349901E0,8.914669156E-1,-3.462007269E-2,-2.788247466E-1
6.989295994E0,6.667027473E-1,-1.752308309E-1,-2.852161527E-1
6.999234067E0,4.238295853E-1,-2.828193605E-1,-3.054555655E-1
7.009172192E0,2.150439173E-1,-3.296896219E-1,-3.214340508E-1
7.019102296E0,6.378082931E-2,-3.552552164E-1,-3.171731234E-1
7.029040369E0,-3.528584540E-2,-3.573856652E-1,-3.129121959E-1
7.038978442E0,-1.045259908E-1,-3.264939189E-1,-2.926727831E-1
7.048914223E0,-1.577876359E-1,-2.828193605E-1,-2.521939278E-1
7.058852296E0,-1.961360276E-1,-2.423405200E-1,-2.053236663E-1
7.068790369E0,-2.302234918E-1,-2.018616647E-1,-1.286268830E-1
7.078718963E0,-2.643109560E-1,-1.677742004E-1,-3.595161438E-2
7.088657088E0,-2.845503688E-1,-1.059906855E-1,4.926702753E-2
7.098595161E0,-2.653761804E-1,1.011971384E-2,1.153114736E-1
7.108557088E0,-2.248973250E-1,1.272953451E-1,1.675078869E-1
7.118495161E0,-2.057231218E-1,2.274272442E-1,1.983996481E-1
7.128433286E0,-1.865489334E-1,2.924064696E-1,2.165086120E-1
7.138343286E0,-1.503310055E-1,3.573856652E-1,2.250304818E-1
7.148281411E0,-1.237001866E-1,4.191691875E-1,2.420742065E-1
7.158219536E0,-1.396786869E-1,4.415390790E-1,2.548570037E-1
7.168183026E0,-1.876141727E-1,4.127778113E-1,2.537917793E-1
7.178121098E0,-2.398105860E-1,3.722989559E-1,2.495308369E-1
7.188059223E0,-2.962679267E-1,3.318201005E-1,2.410089672E-1
7.198004744E0,-3.591166735E-1,2.966673970E-1,2.335523367E-1
7.207942869E0,-4.219654202E-1,2.742975056E-1,2.271609455E-1
7.217880942E0,-4.773575366E-1,2.689713240E-1,2.260957062E-1
7.227796984E0,-5.327496529E-1,2.615146935E-1,2.292914093E-1
7.237735057E0,-5.881417990E-1,2.412752807E-1,2.356828004E-1
7.247673182E0,-6.488600373E-1,2.434057444E-1,2.431394309E-1
7.257635057E0,-7.159697413E-1,2.604494691E-1,2.559222281E-1
7.267573130E0,-7.884055972E-1,2.615146935E-1,2.719007432E-1
7.277511255E0,-8.651023507E-1,2.338186502E-1,3.006620109E-1
7.287438442E0,-9.609733224E-1,2.039921284E-1,3.422061205E-1
7.297376515E0,-1.078148961E0,1.688394397E-1,3.912068307E-1
7.307314640E0,-1.188933253E0,9.959928691E-2,4.435364008E-1
7.317243911E0,-1.277347565E0,4.527240247E-2,5.010589957E-1
7.327182036E0,-1.366827130E0,8.255556226E-2,5.553858876E-1
7.337120109E0,-1.479741812E0,2.082530558E-1,5.937342644E-1
7.347081255E0,-1.605439305E0,2.956021726E-1,6.033213735E-1
7.357019380E0,-1.718353987E0,3.275591433E-1,5.894733071E-1
7.366957453E0,-1.778007030E0,4.031907022E-1,5.724295974E-1
7.376885057E0,-1.775876641E0,4.692351520E-1,5.777557492E-1
7.386823130E0,-1.775876641E0,4.734960794E-1,6.033213735E-1
7.396761255E0,-1.835529685E0,4.884093404E-1,6.288869381E-1
7.406690578E0,-1.917552590E0,4.266258180E-1,6.384740472E-1
7.416628651E0,-1.938857317E0,3.051892519E-1,6.065170765E-1
7.426566776E0,-1.920748353E0,3.094501793E-1,5.394073725E-1
7.436515786E0,-1.911161184E0,4.170387387E-1,4.499278069E-1
7.446453911E0,-1.845116735E0,4.394086301E-1,3.709673882E-1
7.456391984E0,-1.733267307E0,2.519276142E-1,3.315537870E-1
7.466301046E0,-1.700245023E0,-7.989247330E-3,3.123795986E-1
7.476239171E0,-1.778007030E0,-2.071878165E-1,2.868140042E-1
7.486177296E0,-1.867486596E0,-3.051892519E-1,2.527265251E-1
7.496117088E0,-1.942052960E0,-2.476666719E-1,2.537917793E-1
7.506055213E0,-2.050706625E0,-2.663082443E-3,3.134448230E-1
7.515993338E0,-2.126338243E0,1.901440918E-1,3.794892728E-1
7.525958703E0,-2.114620686E0,6.764229387E-2,4.392754734E-1
7.535896776E0,-2.053902388E0,-1.102516204E-1,5.159722567E-1
7.545834901E0,-1.920748353E0,-2.412752807E-1,6.288869381E-1
7.555760421E0,-1.783333182E0,-4.074516296E-1,7.236927152E-1
7.565698546E0,-1.722615004E0,-5.427362323E-1,7.418016195E-1
7.575636671E0,-1.680005670E0,-6.311505437E-1,7.141056061E-1
7.585556359E0,-1.672549009E0,-5.896064639E-1,6.789528728E-1
7.595494484E0,-1.720484495E0,-4.830831885E-1,6.768224239E-1
7.605432609E0,-1.764159083E0,-3.286243975E-1,6.736267209E-1
7.615402765E0,-1.747115254E0,-1.933397949E-1,6.011908650E-1
7.625340838E0,-1.669353247E0,-2.977326214E-1,4.722976983E-1
7.635278963E0,-1.643787742E0,-4.532566369E-1,4.050548673E-1
7.645225161E0,-1.670418501E0,-4.713656008E-1,4.050548673E-1
7.655163390E0,-1.683201313E0,-3.765598834E-1,3.901416063E-1
7.665101671E0,-1.713027835E0,-2.924064696E-1,3.699021637E-1
7.675032765E0,-1.717288733E0,-3.382114768E-1,3.485974967E-1
7.684971046E0,-1.617156863E0,-4.628437459E-1,3.038577139E-1
7.694909276E0,-1.527677298E0,-5.597799420E-1,2.729659677E-1
7.704846359E0,-1.518090248E0,-5.533885360E-1,3.038577139E-1
7.714784588E0,-1.506372690E0,-3.818860352E-1,3.326190114E-1
7.724722869E0,-1.508503079E0,-2.103835195E-1,2.612484097E-1
7.734656984E0,-1.546851516E0,-5.059856921E-2,1.451379955E-1
7.744595213E0,-1.568156123E0,8.042509109E-2,5.778888986E-2
7.754533494E0,-1.628874421E0,1.965354979E-1,-5.059856921E-3
7.764456984E0,-1.683201313E0,3.030588031E-1,-6.471290439E-2
7.774395213E0,-1.739658713E0,4.809527099E-1,-1.403444558E-1
7.784333442E0,-1.774811387E0,5.139749050E-1,-1.573881805E-1
7.794290369E0,-1.754571915E0,5.821498632E-1,-1.307573467E-1
7.804228651E0,-1.733267307E0,6.098458767E-1,-4.979964346E-2
7.814166880E0,-1.701310277E0,5.906717181E-1,2.050573565E-2
7.824082661E0,-1.639526725E0,4.948007464E-1,2.663082560E-4
7.834020942E0,-1.589460850E0,3.360810280E-1,-5.725627393E-2
7.843959223E0,-1.556438565E0,2.274272442E-1,-8.175663650E-2
7.853920786E0,-1.529807806E0,1.656437367E-1,-1.179745570E-1
7.863859015E0,-1.443523884E0,3.248960897E-2,-1.083874628E-1
7.873797296E0,-1.351913810E0,-5.592473224E-2,-6.045197323E-2
7.883713338E0,-1.362566233E0,4.740286991E-2,-2.956021577E-2
7.893651567E0,-1.359370470E0,5.805519968E-2,2.050573565E-2
7.903589796E0,-1.366827130E0,3.994623944E-2,1.304910425E-2
7.913550630E0,-1.382805586E0,8.468602598E-2,3.462007269E-3
7.923488911E0,-1.363631368E0,1.624480337E-1,3.115806542E-2
7.933427140E0,-1.395588398E0,1.837527007E-1,3.967992961E-2
7.943335578E0,-1.446719646E0,1.848179251E-1,-1.864157850E-3
7.953273859E0,-1.457371950E0,2.615146935E-1,-5.086487532E-2
7.963212140E0,-1.443523884E0,3.808208108E-1,-1.784265228E-2
7.973157244E0,-1.416893125E0,3.094501793E-1,7.270215452E-2
7.983095473E0,-1.382805586E0,1.826874614E-1,1.014634445E-1
7.993033703E0,-1.422219276E0,2.242315561E-1,6.631075591E-2
8.002973598E0,-1.459502339E0,1.890788674E-1,-1.784265228E-2
8.012911828E0,-1.472285151E0,1.113168523E-1,-1.243659556E-1
8.022850057E0,-1.513829231E0,1.805569977E-1,-2.149107605E-1
8.032792348E0,-1.553242922E0,3.829512596E-1,-2.170412242E-1
8.042730578E0,-1.586265087E0,5.203663111E-1,-1.478010863E-1
8.052668859E0,-1.576678038E0,4.852136374E-1,-8.175663650E-2
8.062588390E0,-1.551112413E0,5.001268983E-1,-8.495233208E-2
8.072526671E0,-1.561764717E0,5.768237114E-1,-1.254311949E-1
8.082464901E0,-1.575612783E0,4.809527099E-1,-1.786928326E-1
8.092426984E0,-1.547916770E0,4.298215210E-1,-1.904104054E-1
8.102365213E0,-1.498916030E0,4.905398190E-1,-1.691057384E-1
8.112303494E0,-1.464828610E0,3.786903322E-1,-1.573881805E-1
8.122223546E0,-1.386001348E0,2.221010923E-1,-2.138455361E-1
8.132161828E0,-1.331674457E0,2.583190203E-1,-2.575200796E-1
8.142100057E0,-1.290130377E0,2.689713240E-1,-2.063889056E-1
8.152043651E0,-1.175085187E0,1.230344176E-1,-1.669752747E-1
8.161981776E0,-1.062170506E0,1.134473160E-1,-1.531272531E-1
8.171919901E0,-1.012104511E0,1.187734827E-1,-1.392792165E-1
8.181882713E0,-8.896027207E-1,4.527240247E-2,-1.360835135E-1
8.191820838E0,-7.777532339E-1,-1.597849536E-3,-8.814803511E-2
8.201758963E0,-7.159697413E-1,3.248960897E-2,-1.784265228E-2
8.211677817E0,-6.137073636E-1,-7.989247330E-3,8.788172156E-3
8.221615942E0,-4.933360517E-1,-8.362079412E-2,-2.849498391E-2
8.231554067E0,-3.708342612E-1,-5.379426852E-2,-4.660394415E-2
8.241480109E0,-2.302234918E-1,-5.166380107E-2,-1.145125460E-2
8.251418234E0,-1.141130850E-1,-6.338136643E-2,3.967992961E-2
8.261356359E0,-1.930734888E-2,-4.527240247E-2,6.737598777E-2
8.271311411E0,7.336792350E-2,-5.059856921E-2,7.270215452E-2
8.281249536E0,1.585865617E-1,-5.379426852E-2,4.181039706E-2
8.291187661E0,2.470009029E-1,-4.846810177E-2,-2.929390874E-3
8.301121046E0,3.407414258E-1,-4.846810177E-2,-3.595161438E-2
8.311059119E0,4.259600639E-1,-3.888100386E-2,-6.151720881E-2
8.320997296E0,5.228962898E-1,-1.864157803E-2,-8.069140464E-2
8.330934901E0,5.974625945E-1,-5.326165119E-4,-8.601756394E-2
8.340873026E0,6.528546810E-1,2.077204362E-2,-7.962616533E-2
8.350811151E0,7.412690520E-1,4.793548491E-3,-7.430000603E-2
8.360754171E0,8.339443207E-1,-2.609820850E-2,-7.536523789E-2
8.370692296E0,9.095758200E-1,-4.953333735E-2,-7.749570161E-2
8.380630421E0,9.926640391E-1,-6.764229387E-2,-9.453943372E-2
8.390567505E0,1.052317023E0,-8.894696087E-2,-1.094526947E-1
8.400505630E0,1.099187374E0,-9.001219273E-2,-9.666989744E-2
8.410443755E0,1.162036061E0,-1.070559174E-1,-8.175663650E-2
8.420367973E0,1.208906293E0,-1.315562725E-1,-7.643046975E-2
8.430306151E0,1.242993832E0,-1.507304758E-1,-6.684337556E-2
8.440244223E0,1.286668301E0,-1.837527007E-1,-4.979964346E-2
8.450201984E0,1.348451853E0,-2.157096863E-1,-3.808208182E-2
8.460140109E0,1.394256830E0,-2.189053893E-1,-4.234301299E-2
8.470078234E0,1.423018217E0,-1.997311860E-1,-3.169068322E-2
8.479996932E0,1.436866164E0,-1.784265339E-1,-1.784265228E-2
8.489935005E0,1.441127181E0,-1.624480337E-1,-1.038602181E-2
8.499873130E0,1.473084092E0,-1.645784974E-1,-1.358172111E-2
8.509837348E0,1.486932158E0,-1.454043090E-1,-2.529928461E-2
8.519775473E0,1.487997413E0,-1.517957002E-1,-2.529928461E-2
8.529713598E0,1.510367274E0,-2.082530558E-1,-1.890788600E-2
8.539635213E0,1.546585202E0,-2.700365782E-1,-2.956021577E-2
8.549573286E0,1.545519948E0,-2.870802879E-1,-6.364767253E-2
8.559511463E0,1.539128542E0,-2.796236575E-1,-8.601756394E-2
8.569436046E0,1.559368014E0,-2.721670270E-1,-9.560466558E-2
8.579374171E0,1.564694166E0,-2.348838747E-1,-8.708280325E-2
8.589312296E0,1.557237506E0,-1.922745556E-1,-6.364767253E-2
8.599259953E0,1.568955064E0,-1.592523307E-1,-4.660394415E-2
8.609198130E0,1.606238246E0,-1.560566425E-1,-3.595161438E-2
8.619136255E0,1.631803870E0,-1.486000121E-1,-2.956021577E-2
8.629075942E0,1.643521428E0,-1.454043090E-1,-2.956021577E-2
8.639014067E0,1.654173732E0,-1.336867511E-1,-4.127778113E-2
8.648952192E0,1.669087052E0,-1.240996495E-1,-4.766917601E-2
8.658885473E0,1.696783066E0,-1.219691783E-1,-6.258244067E-2
8.668823598E0,1.736196637E0,-1.486000121E-1,-8.495233208E-2
8.678761723E0,1.747914195E0,-1.976007223E-1,-1.233007237E-1
8.688719953E0,1.750044703E0,-2.615146935E-1,-1.520620137E-1
8.698658078E0,1.780936480E0,-2.721670270E-1,-1.478010863E-1
8.708596151E0,1.784132123E0,-1.134473160E-1,-1.563229412E-1
8.718545473E0,1.767088413E0,-1.757634431E-2,-1.701709777E-1
8.728483598E0,1.728740096E0,3.568530455E-2,-1.754971445E-1
8.738421671E0,1.708500624E0,5.485950038E-2,-1.605838835E-1
8.748329015E0,1.724479079E0,1.864157803E-2,-1.509967744E-1
8.758267140E0,1.745783806E0,-1.864157803E-2,-1.637795717E-1
8.768205265E0,1.775610328E0,-3.462007269E-2,-1.808233112E-1
8.778142661E0,1.784132123E0,-6.018566713E-2,-2.138455361E-1
8.788080838E0,1.763892770E0,-8.255556226E-2,-2.511286736E-1
8.798018911E0,1.739392400E0,-1.049254537E-1,-2.553896308E-1
8.807974484E0,1.758566618E0,-4.207670316E-2,-2.106498331E-1
8.817912557E0,1.788393140E0,5.592473224E-2,-2.095845938E-1
8.827850682E0,1.767088413E0,4.633763805E-2,-2.489982247E-1
8.837802505E0,1.741522789E0,7.296846062E-2,-2.703028917E-1
8.847740630E0,1.738327146E0,1.773612946E-1,-2.798899710E-1
8.857678755E0,1.735131383E0,2.157096863E-1,-3.214340508E-1
8.867614223E0,1.742588043E0,2.103835195E-1,-3.821523488E-1
8.877552348E0,1.750044703E0,1.858831644E-1,-4.407401681E-1
8.887490421E0,1.733000994E0,9.107742459E-2,-4.386096895E-1
8.897409536E0,1.708500624E0,6.338136643E-2,-4.418053925E-1
8.907347661E0,1.685065508E0,1.038602218E-1,-4.588491321E-1
8.917285734E0,1.660565138E0,1.177082509E-1,-4.386096895E-1
8.927222869E0,1.637130022E0,1.262301207E-1,-4.151745737E-1
8.937160942E0,1.629673362E0,7.829462737E-2,-3.704347908E-1
8.947099067E0,1.628608108E0,1.027949899E-1,-3.033251166E-1
8.957052192E0,1.612629652E0,2.359491140E-1,-2.884118557E-1
8.966990317E0,1.583868384E0,3.691032529E-1,-3.310211599E-1
8.976928390E0,1.565759420E0,3.967992961E-1,-3.555215299E-1
8.986859432E0,1.534867644E0,3.659075499E-1,-3.310211599E-1
8.996797557E0,1.489062667E0,3.754946291E-1,-3.065207899E-1
9.006735682E0,1.453909874E0,4.181039631E-1,-3.011946380E-1
9.016683755E0,1.433670521E0,3.818860352E-1,-3.075860441E-1
9.026621880E0,1.436866164E0,2.583190203E-1,-3.182383776E-1
9.036559953E0,1.458170891E0,1.336867511E-1,-3.246297538E-1
9.046484432E0,1.473084092E0,8.255556226E-2,-3.363473415E-1
9.056422557E0,1.449648976E0,1.198387146E-1,-3.352820873E-1
9.066360682E0,1.433670521E0,2.316881865E-1,-3.501953483E-1
9.076288911E0,1.447518468E0,2.018616647E-1,-3.278254569E-1
9.086227088E0,1.478410244E0,5.698996782E-2,-2.926727831E-1
9.096165161E0,1.509302020E0,-4.740286991E-2,-3.118469715E-1
9.106100994E0,1.513562918E0,-1.422086060E-1,-3.651086092E-1
9.116039119E0,1.490127802E0,-2.604494691E-1,-3.938699067E-1
9.125977296E0,1.472018838E0,-2.806889117E-1,-4.045222402E-1
9.135944901E0,1.454975128E0,-1.933397949E-1,-3.917394578E-1
9.145883026E0,1.427279115E0,-8.468602598E-2,-3.565867543E-1
9.155821098E0,1.420887709E0,1.970681176E-2,-3.406082690E-1
9.165737348E0,1.415561557E0,-2.077204362E-2,-3.150426745E-1
9.175675473E0,1.387865424E0,-1.422086060E-1,-3.107817471E-1
9.185613598E0,1.342060447E0,-2.082530558E-1,-3.384777904E-1
9.195576723E0,1.277081251E0,-2.402100414E-1,-3.512606025E-1
9.205514848E0,1.207841039E0,-2.412752807E-1,-3.384777904E-1
9.215453026E0,1.143927097E0,-2.093182951E-1,-3.022598624E-1
9.225368182E0,1.082143545E0,-1.368824393E-1,-2.692376375E-1
9.235306307E0,1.023555756E0,-4.207670316E-2,-2.447372824E-1
9.245244484E0,9.958597422E-1,5.379426852E-2,-2.511286736E-1
9.255179536E0,9.852073789E-1,2.609820850E-2,-2.383458912E-1
9.265117713E0,9.734898210E-1,-9.533835202E-2,-2.053236663E-1
9.275055890E0,9.670984149E-1,-1.635132730E-1,-1.989322603E-1
9.284998442E0,9.585765600E-1,-1.539261788E-1,-2.063889056E-1
9.294936567E0,9.074453712E-1,-1.315562725E-1,-1.936061084E-1
9.304874692E0,8.296833634E-1,-7.190322876E-2,-1.808233112E-1
9.314827765E0,7.604432106E-1,-3.568530455E-2,-1.701709777E-1
9.324765942E0,7.146382332E-1,-1.438064594E-2,-1.754971445E-1
9.334704067E0,6.890726089E-1,9.054481052E-3,-1.882799417E-1
9.344651932E0,6.720288992E-1,-1.864157803E-2,-2.063889056E-1
9.354590057E0,6.571156383E-1,-1.049254537E-1,-2.308892608E-1
9.364528234E0,6.507242322E-1,-1.890788674E-1,-2.585853040E-1
9.374454223E0,6.613765359E-1,-1.826874614E-1,-2.979989350E-1
9.384392348E0,6.603113413E-1,-1.326215118E-1,-3.193036020E-1
9.394330526E0,6.432675719E-1,-1.102516204E-1,-3.118469715E-1
9.404261828E0,6.592460871E-1,-9.427312016E-2,-3.256950080E-1
9.414199953E0,6.848116517E-1,-9.214265645E-2,-3.416734934E-1
9.424138078E0,6.880073547E-1,-8.042509109E-2,-3.320863843E-1
9.434092921E0,6.752246022E-1,-4.846810177E-2,-3.161078990E-1
9.444031046E0,6.549851298E-1,5.858781748E-3,-2.990641594E-1
9.453969223E0,6.049191952E-1,8.788172156E-2,-2.521939278E-1
9.463875994E0,5.537880063E-1,9.107742459E-2,-2.010627389E-1
9.473814171E0,5.218310356E-1,3.462007269E-2,-1.360835135E-1
9.483752348E0,4.600475132E-1,1.544587873E-2,-5.406057462E-2
9.493683546E0,3.790898025E-1,-5.858781748E-3,6.657706574E-3
9.503621723E0,2.917406857E-1,-5.059856921E-2,5.139749497E-2
9.513559848E0,1.852173954E-1,-1.017297506E-1,7.057169080E-2
9.523537661E0,7.656362653E-2,-1.443390697E-1,7.057169080E-2
9.533475786E0,-2.356828004E-2,-1.592523307E-1,6.311506033E-2
9.543413911E0,-1.205044836E-1,-1.379476786E-1,5.246272683E-2
9.553348494E0,-2.121145278E-1,-9.427312016E-2,4.500609636E-2
9.563286619E0,-2.952027023E-1,-5.059856921E-2,4.287562892E-2
9.573224796E0,-3.644428551E-1,-1.331541315E-2,4.500609636E-2
9.583141828E0,-4.187697470E-1,1.651111245E-2,5.565842614E-2
9.593079953E0,-4.635095298E-1,3.035914153E-2,7.270215452E-2
9.603018130E0,-4.954665005E-1,4.101147130E-2,9.826774895E-2
9.612973494E0,-5.125102401E-1,7.190322876E-2,1.270290315E-1
9.622911619E0,-5.210320950E-1,1.059906855E-1,1.600512564E-1
9.632849796E0,-5.338149071E-1,1.219691783E-1,1.920082569E-1
9.642765265E0,-5.455324650E-1,1.379476786E-1,2.197043151E-1
9.652703390E0,-5.572500229E-1,1.826874614E-1,2.516613007E-1
9.662641515E0,-5.764242411E-1,2.497971505E-1,2.846835256E-1
9.672588963E0,-6.200987697E-1,2.956021726E-1,3.177057505E-1
9.682527140E0,-6.850779653E-1,3.179720640E-1,3.411408663E-1
9.692465317E0,-7.479267120E-1,3.424724042E-1,3.592498302E-1
9.702388390E0,-8.054493070E-1,3.680379987E-1,3.805544972E-1
9.712326567E0,-8.661676049E-1,3.776251078E-1,4.029243886E-1
9.722264744E0,-9.322120547E-1,3.680379987E-1,4.275579154E-1
9.732231046E0,-9.929303527E-1,3.328853250E-1,4.414059222E-1
9.742169223E0,-1.041931033E0,2.913412452E-1,4.499278069E-1
9.752107401E0,-1.077083707E0,3.105154335E-1,4.584496617E-1
9.762033390E0,-1.100518823E0,4.021254778E-1,4.627105892E-1
9.771971567E0,-1.132475853E0,4.873441160E-1,4.499278069E-1
9.781909744E0,-1.192128897E0,5.118444562E-1,4.167724252E-1
9.791856098E0,-1.263499498E0,4.436695576E-1,3.730978668E-1
9.801794276E0,-1.332739711E0,3.999949992E-1,3.283580840E-1
9.811732453E0,-1.375349045E0,4.181039631E-1,3.134448230E-1
9.821649901E0,-1.391327500E0,4.287562966E-1,3.336842358E-1
9.831588130E0,-1.413697362E0,4.127778113E-1,3.603150845E-1
9.841526255E0,-1.456306696E0,4.319519997E-1,3.805544972E-1
9.851471828E0,-1.519155502E0,4.756265581E-1,3.890763521E-1
9.861410005E0,-1.584134698E0,4.703003764E-1,3.762935698E-1
9.871348182E0,-1.618222117E0,3.616466224E-1,3.667064607E-1
9.881281932E0,-1.622483015E0,1.656437367E-1,3.720326424E-1
9.891220161E0,-1.629939675E0,5.326165119E-4,3.816197217E-1
9.901158338E0,-1.662961960E0,-4.207670316E-2,4.147751033E-1
9.911112036E0,-1.717288733E0,4.314193875E-2,4.616453648E-1
9.921050213E0,-1.770550489E0,2.199706137E-1,4.957328141E-1
9.930988390E0,-1.807833552E0,3.105154335E-1,5.053198934E-1
9.940911046E0,-1.881334662E0,2.689713240E-1,4.691019952E-1
9.950849223E0,-2.031532526E0,2.039921284E-1,4.029243886E-1
9.960787401E0,-2.182795525E0,1.326215118E-1,3.603150845E-1
9.970730786E0,-2.231796265E0,-5.379426852E-2,3.645760119E-1
9.980668963E0,-2.114620686E0,-4.351477027E-1,3.890763521E-1
9.990607140E0,-1.958031416E0,-8.516538143E-1,3.922720551E-1
1.000054339E1,-1.910095930E0,-8.665670753E-1,3.560541272E-1
1.001048157E1,-1.937792063E0,-4.873441160E-1,3.027924895E-1
1.002041974E1,-1.964422822E0,-2.444709837E-1,2.719007432E-1
1.003036115E1,-1.948444366E0,-4.053211510E-1,2.868140042E-1
1.004029933E1,-1.845116735E0,-7.121082544E-1,4.050548673E-1
1.005023750E1,-1.688527465E0,-7.515218854E-1,5.766905546E-1
1.006017688E1,-1.574547529E0,-5.491276383E-1,6.214303374E-1
1.007011500E1,-1.563895226E0,-3.818860352E-1,5.734948516E-1
1.008005323E1,-1.588395596E0,-3.776251078E-1,5.553858876E-1
1.008999724E1,-1.545786262E0,-4.628437459E-1,5.671034455E-1
1.009993542E1,-1.496785522E0,-4.692351520E-1,5.862776041E-1
1.010987360E1,-1.535133958E0,-3.914731443E-1,6.267564893E-1
1.011982553E1,-1.593721747E0,-2.444709837E-1,6.288869381E-1
1.012976370E1,-1.587330341E0,-1.411433816E-1,5.639077425E-1
1.013970188E1,-1.523416400E0,-2.093182951E-1,4.882761836E-1
1.014960948E1,-1.496785522E0,-2.849498391E-1,4.999937415E-1
1.015954766E1,-1.497850776E0,-2.199706137E-1,5.255593657E-1
1.016948584E1,-1.477611303E0,-7.190322876E-2,4.978632927E-1
1.017942730E1,-1.463763356E0,-2.663082443E-3,4.499278069E-1
1.018936547E1,-1.442458630E0,-9.054481052E-3,4.167724252E-1
1.019930360E1,-1.408371210E0,-5.592473224E-2,3.677717149E-1
1.020924964E1,-1.382805586E0,-7.403369248E-2,2.857487500E-1
1.021918777E1,-1.388131738E0,2.929390781E-2,1.376813650E-1
1.022912589E1,-1.459502339E0,1.400781423E-1,-1.464695390E-2
1.023905745E1,-1.530873060E0,1.581871063E-1,-9.240896255E-2
1.024899558E1,-1.552177668E0,6.338136643E-2,-1.201050207E-1
1.025893370E1,-1.547916770E0,1.544587873E-2,-9.134373069E-2
1.026888037E1,-1.525546789E0,1.507304758E-1,-1.464695390E-2
1.027881855E1,-1.481872320E0,2.103835195E-1,6.098458916E-2
1.028875667E1,-1.393458009E0,1.411433816E-1,1.248985752E-1
1.029868323E1,-1.330609202E0,2.135792226E-1,1.121157780E-1
1.030862141E1,-1.289065123E0,2.711018026E-1,6.524552405E-2
1.031855954E1,-1.279478073E0,1.997311860E-1,2.663082560E-4
1.032851948E1,-1.306108832E0,2.370143533E-1,-6.151720881E-2
1.033845761E1,-1.329543948E0,2.295577228E-1,-9.666989744E-2
1.034839573E1,-1.358305216E0,2.625799477E-1,-1.350182891E-1
1.035830870E1,-1.373218536E0,3.222329915E-1,-1.669752747E-1
1.036824688E1,-1.399849296E0,3.637770712E-1,-1.723014414E-1
1.037818500E1,-1.389196992E0,3.989297748E-1,-1.541924775E-1
1.038813907E1,-1.330609202E0,3.648423254E-1,-1.137136221E-1
1.039807719E1,-1.314630747E0,2.093182951E-1,-4.021254554E-2
1.040801532E1,-1.235803485E0,7.509893179E-2,7.909355313E-2
1.041793938E1,-1.201715946E0,2.444709837E-1,7.376738638E-2
1.042787751E1,-1.163367629E0,2.817541361E-1,9.081111848E-2
1.043781563E1,-1.158041477E0,2.934716940E-1,5.885412544E-2
1.044777282E1,-1.172954679E0,3.573856652E-1,1.304910425E-2
1.045771094E1,-1.195324659E0,3.659075499E-1,1.304910425E-2
1.046764907E1,-1.196389794E0,4.021254778E-1,-8.255556226E-3
1.047759844E1,-1.155910969E0,3.435376585E-1,-1.997311972E-2
1.048753657E1,-1.177215695E0,3.211677670E-1,-5.938674137E-2
1.049747469E1,-1.177215695E0,3.105154335E-1,-1.233007237E-1
1.050739313E1,-1.174019933E0,2.668408751E-1,-1.296921223E-1
1.051733126E1,-1.188933253E0,2.466014475E-1,-1.243659556E-1
1.052726943E1,-1.178280830E0,3.264939189E-1,-1.850842386E-1
1.053721334E1,-1.127149701E0,3.627118468E-1,-3.054555655E-1
1.054715146E1,-1.115432143E0,3.456681073E-1,-3.555215299E-1
1.055708959E1,-1.125019193E0,3.786903322E-1,-3.438039720E-1
1.056701896E1,-1.115432143E0,4.202344418E-1,-3.161078990E-1
1.057695709E1,-1.080279469E0,4.404738545E-1,-2.841508985E-1
1.058689521E1,-1.027017832E0,4.383433759E-1,-3.001294136E-1
1.059683902E1,-9.641690254E-1,4.010602236E-1,-3.469996452E-1
1.060677714E1,-9.162335396E-1,3.872122169E-1,-3.885437548E-1
1.061671526E1,-8.533847928E-1,3.520595133E-1,-3.896089792E-1
1.062663928E1,-7.702966332E-1,3.861469626E-1,-3.043903410E-1
1.063657745E1,-6.637732983E-1,3.722989559E-1,-1.861494780E-1
1.064651558E1,-5.508586168E-1,3.211677670E-1,-6.045197323E-2
1.065648407E1,-4.528571963E-1,2.625799477E-1,2.370143496E-2
1.066642219E1,-3.473991156E-1,1.230344176E-1,6.311506033E-2
1.067636032E1,-2.493976802E-1,-3.248960897E-2,6.311506033E-2
1.068628365E1,-1.705704331E-1,-1.155777797E-1,4.926702753E-2
1.069622178E1,-8.961272985E-2,-1.699046642E-1,4.500609636E-2
1.070616001E1,8.388710208E-3,-1.997311860E-1,5.991935730E-2
1.071611105E1,7.762885839E-2,-2.242315561E-1,1.025286764E-1
1.072604922E1,1.447385401E-1,-2.167749256E-1,1.536598653E-1
1.073598740E1,2.182396203E-1,-1.933397949E-1,2.058562785E-1
1.074592834E1,3.109148741E-1,-1.635132730E-1,2.420742065E-1
1.075586652E1,3.705679476E-1,-1.581871063E-1,2.410089672E-1
1.076580469E1,3.929378390E-1,-1.475347728E-1,2.015953511E-1
1.077574063E1,4.280905128E-1,-1.251648813E-1,1.451379955E-1
1.078567881E1,4.877435565E-1,-1.017297506E-1,1.014634445E-1
1.079561698E1,5.356790423E-1,-1.102516204E-1,7.057169080E-2
1.080554480E1,5.750926733E-1,-1.187734827E-1,5.246272683E-2
1.081548292E1,6.038539410E-1,-8.575125784E-2,4.181039706E-2
1.082542115E1,6.475285292E-1,-5.912043154E-2,3.328853101E-2
1.083536193E1,7.029206157E-1,-6.551183015E-2,3.115806542E-2
1.084530011E1,7.497909069E-1,-9.853405505E-2,3.115806542E-2
1.085523829E1,8.009220958E-1,-1.390129030E-1,2.370143496E-2
1.086516589E1,8.509880304E-1,-1.539261788E-1,1.411433797E-2
1.087510402E1,8.978582621E-1,-1.624480337E-1,8.788172156E-3
1.088504219E1,9.372718930E-1,-2.061225921E-1,6.657706574E-3
1.089498271E1,9.873378873E-1,-2.125139832E-1,-1.864157850E-3
1.090492089E1,1.033142924E0,-1.784265339E-1,-7.190322969E-3
1.091485907E1,1.068295598E0,-1.486000121E-1,-1.251648832E-2
1.092481219E1,1.082143545E0,-1.198387146E-1,-2.210358530E-2
1.093475032E1,1.100252509E0,-1.102516204E-1,-2.529928461E-2
1.094468855E1,1.131144285E0,-1.272953451E-1,-2.742975019E-2
1.095462756E1,1.158840418E0,-1.145125479E-1,-3.382114694E-2
1.096456573E1,1.174818873E0,-1.017297506E-1,-3.595161438E-2
1.097450391E1,1.169492722E0,-1.091863886E-1,-2.849498391E-2
1.098440881E1,1.191862583E0,-1.443390697E-1,-1.358172111E-2
1.099434698E1,1.230211020E0,-1.976007223E-1,3.462007269E-3
1.100428521E1,1.256841779E0,-2.370143533E-1,1.944050193E-2
1.101422719E1,1.283472657E0,-2.604494691E-1,1.198387146E-2
1.102416537E1,1.309038281E0,-2.721670270E-1,-1.571218669E-2
1.103410360E1,1.328212380E0,-2.902759910E-1,-4.021254554E-2
1.104405719E1,1.362299919E0,-3.083849549E-1,-5.619104207E-2
1.105399532E1,1.361234665E0,-3.350157738E-1,-6.577813625E-2
1.106393355E1,1.361234665E0,-3.488638103E-1,-7.856093347E-2
1.107388506E1,1.407039642E0,-3.744294047E-1,-8.069140464E-2
1.108382323E1,1.428344369E0,-3.382114768E-1,-8.814803511E-2
1.109376141E1,1.433670521E0,-2.551233172E-1,-9.453943372E-2
1.110368120E1,1.448583722E0,-2.157096863E-1,-1.062569916E-1
1.111361933E1,1.444322824E0,-1.667089611E-1,-1.190397888E-1
1.112355756E1,1.423018217E0,-1.113168523E-1,-1.307573467E-1
1.113350777E1,1.418757200E0,-7.403369248E-2,-1.488663107E-1
1.114344594E1,1.403843999E0,-7.509893179E-2,-1.744319052E-1
1.115338412E1,1.371886969E0,-8.681648970E-2,-1.808233112E-1
1.116332365E1,1.353778005E0,-2.822867595E-2,-1.882799417E-1
1.117326178E1,1.382539272E0,-2.077204362E-2,-1.968017966E-1
1.118320001E1,1.399582982E0,-5.059856921E-2,-1.904104054E-1
1.119314396E1,1.369756460E0,-2.290250920E-2,-1.616491079E-1
1.120308219E1,1.368691325E0,-1.597849536E-3,-1.201050207E-1
1.121302042E1,1.428344369E0,-2.929390781E-2,-8.921326697E-2
1.122292360E1,1.491193056E0,-7.509893179E-2,-8.601756394E-2
1.123286183E1,1.517823935E0,-8.894696087E-2,-9.773512930E-2
1.124280011E1,1.523150086E0,-6.231613085E-2,-1.179745570E-1
1.125275980E1,1.509302020E0,-3.248960897E-2,-1.382139921E-1
1.126269803E1,1.506106377E0,-1.438064594E-2,-1.520620137E-1
1.127263626E1,1.517823935E0,-1.651111245E-2,-1.637795717E-1
1.128257308E1,1.521019578E0,1.011971384E-2,-1.914756298E-1
1.129251131E1,1.549780846E0,1.864157803E-2,-2.191716880E-1
1.130244954E1,1.594520688E0,3.462007269E-2,-2.436720580E-1
1.131238610E1,1.590259790E0,9.214265645E-2,-2.607157826E-1
1.132232433E1,1.564694166E0,1.464695334E-1,-2.479329854E-1
1.133226256E1,1.578542233E0,1.752308309E-1,-2.170412242E-1
1.134218855E1,1.621151567E0,2.338186502E-1,-2.031932026E-1
1.135212678E1,1.656304240E0,2.732322812E-1,-2.063889056E-1
1.136206506E1,1.676543593E0,2.806889117E-1,-2.298240215E-1
1.137201146E1,1.670152187E0,2.178401500E-1,-2.362154275E-1
1.138194969E1,1.640325665E0,1.613828093E-1,-2.106498331E-1
1.139188792E1,1.631803870E0,2.316881865E-1,-2.127802968E-1
1.140181980E1,1.610499144E0,3.286243975E-1,-2.479329854E-1
1.141175803E1,1.576411724E0,3.925383687E-1,-3.150426745E-1
1.142169631E1,1.568955064E0,3.169068098E-1,-3.416734934E-1
1.143163626E1,1.596651196E0,2.157096863E-1,-3.267602324E-1
1.144157448E1,1.648847580E0,1.784265339E-1,-3.352820873E-1
1.145151271E1,1.681869745E0,2.700365782E-1,-4.119788706E-1
1.146144730E1,1.677608848E0,3.030588031E-1,-4.876104295E-1
1.147138558E1,1.642456174E0,2.338186502E-1,-4.758928418E-1
1.148132381E1,1.613694906E0,2.210358530E-1,-4.364792407E-1
1.149127907E1,1.624347210E0,2.071878165E-1,-3.842828274E-1
1.150121730E1,1.660565138E0,1.826874614E-1,-3.288906813E-1
1.151115553E1,1.680804610E0,1.837527007E-1,-2.830856740E-1
1.152108245E1,1.674413204E0,1.784265339E-1,-2.809551954E-1
1.153102063E1,1.655238986E0,1.017297506E-1,-3.043903410E-1
1.154095891E1,1.621151567E0,-2.503297664E-2,-3.118469715E-1
1.155089214E1,1.580672622E0,-9.214265645E-2,-3.235645294E-1
1.156083037E1,1.543389440E0,-3.035914153E-2,-3.438039720E-1
1.157076860E1,1.565759420E0,1.304910481E-1,-3.736304939E-1
1.158072167E1,1.582803130E0,2.114487588E-1,-3.651086092E-1
1.159065990E1,1.588129282E0,1.326215118E-1,-3.501953483E-1
1.160059813E1,1.603042603E0,-8.894696087E-2,-3.597824574E-1
1.161052974E1,1.631803870E0,-3.083849549E-1,-4.141093493E-1
1.162046797E1,1.644586682E0,-4.383433759E-1,-4.428706169E-1
1.163040626E1,1.665891290E0,-4.458000064E-1,-4.268921316E-1
1.164033860E1,1.659499884E0,-4.074516296E-1,-3.661738634E-1
1.165027683E1,1.623281956E0,-3.105154335E-1,-3.256950080E-1
1.166021506E1,1.587064028E0,-1.880136281E-1,-3.384777904E-1
1.167016198E1,1.544454694E0,-1.123820841E-1,-3.736304939E-1
1.168010021E1,1.479475498E0,-8.681648970E-2,-4.034570158E-1
1.169003844E1,1.388930678E0,-9.533835202E-2,-4.098483920E-1
1.169996370E1,1.280276895E0,-1.326215118E-1,-3.832175732E-1
1.170990178E1,1.185471177E0,-1.720351279E-1,-3.384777904E-1
1.171983990E1,1.131144285E0,-1.496652365E-1,-3.182383776E-1
1.172980412E1,1.080013156E0,-1.422086060E-1,-2.820204496E-1
1.173974224E1,1.025686264E0,-1.603175700E-1,-2.362154275E-1
1.174968037E1,9.958597422E-1,-1.667089611E-1,-2.319544852E-1
1.175961526E1,9.521851540E-1,-2.210358530E-1,-2.447372824E-1
1.176955334E1,9.053149223E-1,-2.838846147E-1,-2.894770801E-1
1.177949146E1,8.456618786E-1,-3.488638103E-1,-3.246297538E-1
1.178943636E1,7.817478776E-1,-3.264939189E-1,-3.565867543E-1
1.179937443E1,7.306166887E-1,-2.348838747E-1,-3.981308341E-1
1.180931261E1,6.890726089E-1,-1.720351279E-1,-4.268921316E-1
1.181923907E1,6.304848194E-1,-1.262301207E-1,-4.236964285E-1
1.182917714E1,5.708317757E-1,-3.248960897E-2,-4.109136462E-1
1.183911526E1,5.015916228E-1,-2.663082443E-3,-3.406082690E-1
1.184905209E1,4.675041437E-1,7.935985923E-2,-2.756290436E-1
1.185899016E1,4.781564772E-1,2.103835195E-1,-2.213021666E-1
1.186892829E1,4.813521802E-1,2.189053893E-1,-1.531272531E-1
1.187887162E1,4.153077304E-1,1.901440918E-1,-7.323476672E-2
1.188880974E1,3.226324618E-1,2.295577228E-1,1.331541222E-3
1.189874787E1,2.459356785E-1,3.158415854E-1,9.081111848E-2
1.190868672E1,1.639127284E-1,3.776251078E-1,1.536598653E-1
1.191862480E1,7.443315536E-2,3.733641803E-1,1.888125539E-1
1.192856292E1,-3.848154470E-2,2.689713240E-1,2.133129090E-1
1.193847797E1,-1.098521575E-1,1.944050342E-1,1.962691844E-1
1.194841610E1,-1.354177445E-1,1.006645188E-1,1.600512564E-1
1.195835422E1,-1.460700780E-1,2.663082443E-3,1.121157780E-1
1.196830579E1,-1.673747450E-1,-8.362079412E-2,5.991935730E-2
1.197824386E1,-1.822880059E-1,-1.539261788E-1,2.263620123E-2
1.198818198E1,-1.844184697E-1,-1.741656065E-1,-2.929390874E-3
1.199814198E1,-1.620485783E-1,-1.411433816E-1,-1.251648832E-2
1.200808011E1,-1.098521575E-1,-1.102516204E-1,-1.358172111E-2
1.201801818E1,-4.806863889E-2,-1.262301207E-1,-3.994623665E-3
1.202792047E1,-2.569874749E-2,-1.113168523E-1,1.944050193E-2
1.203785860E1,-6.524552125E-3,-1.102516204E-1,4.713656008E-2
1.204779667E1,1.478010789E-2,-9.533835202E-2,8.761541545E-2
1.205775329E1,2.969337068E-2,-2.716344222E-2,1.185071766E-1
1.206769136E1,3.395430371E-2,4.633763805E-2,1.291595101E-1
1.207762948E1,2.756290510E-2,1.187734827E-1,1.238333359E-1
1.208756110E1,3.062544856E-3,1.773612946E-1,1.067896113E-1
1.209749917E1,-4.274247587E-2,2.125139832E-1,8.228924870E-2
1.210743730E1,-1.077216864E-1,2.125139832E-1,5.246272683E-2
1.211736704E1,-1.780270636E-1,1.901440918E-1,4.181039706E-2
1.212730516E1,-2.440715134E-1,1.560566425E-1,5.139749497E-2
1.213724329E1,-3.058550358E-1,1.294258088E-1,6.524552405E-2
1.214718433E1,-3.527252972E-1,1.219691783E-1,7.589785010E-2
1.215712240E1,-3.804213405E-1,1.230344176E-1,8.441971987E-2
1.216706053E1,-3.942693770E-1,1.017297506E-1,9.400681406E-2
1.217701443E1,-4.113130867E-1,6.551183015E-2,1.003982127E-1
1.218695256E1,-4.347482324E-1,9.001219273E-2,9.826774895E-2
1.219689063E1,-4.752270877E-1,1.677742004E-1,9.720251709E-2
1.220684469E1,-5.497934222E-1,2.370143533E-1,1.035939083E-1
1.221678297E1,-6.488600373E-1,2.689713240E-1,1.131810099E-1
1.222672126E1,-7.511224151E-1,2.849498391E-1,1.291595101E-1
1.223664834E1,-8.533847928E-1,2.977326214E-1,1.547250897E-1
1.224658662E1,-9.577776194E-1,2.796236575E-1,1.888125539E-1
1.225652485E1,-1.076018453E0,2.593842447E-1,2.346175760E-1
1.226647042E1,-1.204911709E0,2.370143533E-1,2.889444530E-1
1.227640865E1,-1.337000608E0,1.773612946E-1,3.475322723E-1
1.228634693E1,-1.463763356E0,8.042509109E-2,4.082505703E-1
1.229628839E1,-1.575612783E0,9.054481052E-3,4.701672196E-1
1.230622667E1,-1.683201313E0,-1.544587873E-2,5.362116694E-1
1.231616490E1,-1.776941895E0,6.924014539E-3,6.033213735E-1
1.232610000E1,-1.822746873E0,8.788172156E-2,6.672353148E-1
1.233603823E1,-1.851508141E0,1.720351279E-1,7.194317579E-1
1.234597652E1,-1.900508881E0,3.083849549E-1,7.460625768E-1
1.235590438E1,-1.963357568E0,4.937354922E-1,7.524539828E-1
1.236584266E1,-2.020880222E0,5.704323053E-1,7.503235340E-1
1.237578089E1,-2.049641609E0,5.161054134E-1,7.343450189E-1
1.238570594E1,-2.031532526E0,4.458000064E-1,6.885399818E-1
1.239564417E1,-1.966553330E0,4.916050434E-1,6.075822711E-1
1.240558245E1,-1.922878742E0,6.577813625E-1,5.607120395E-1
1.241552068E1,-1.976140380E0,8.122401834E-1,5.671034455E-1
1.242545750E1,-2.054967642E0,8.303491473E-1,6.033213735E-1
1.243539579E1,-2.009162664E0,4.394086301E-1,6.331478953E-1
1.244533407E1,-1.829138279E0,-2.018616647E-1,5.660381913E-1
1.245526193E1,-1.662961960E0,-6.364767551E-1,3.794892728E-1
1.246520021E1,-1.646983385E0,-6.300853491E-1,1.536598653E-1
1.247513849E1,-1.769485235E0,-2.924064696E-1,-3.914731368E-2
1.248510573E1,-1.962292433E0,-1.070559174E-1,-8.814803511E-2
1.249504396E1,-2.095446587E0,-3.392767310E-1,7.722939365E-3
1.250498224E1,-2.036858797E0,-8.090444803E-1,2.047910541E-1
1.251488808E1,-1.891986966E0,-1.100918293E0,4.318188429E-1
1.252482636E1,-1.879204154E0,-8.463276625E-1,5.223636627E-1
1.253476464E1,-2.021945477E0,-3.105154335E-1,4.754934013E-1
1.254471209E1,-2.179600000E0,-2.396774292E-2,3.944025338E-1
1.255465032E1,-2.212622166E0,-7.403369248E-2,3.730978668E-1
1.256458860E1,-2.123142481E0,-2.860150635E-1,4.371449947E-1
1.257455516E1,-2.010227919E0,-4.681699276E-1,5.159722567E-1
1.258449339E1,-1.912226439E0,-5.693670511E-1,5.809514523E-1
1.259443167E1,-1.768419981E0,-6.215634942E-1,5.734948516E-1
1.260435443E1,-1.610765457E0,-7.387390733E-1,4.786891043E-1
1.261429266E1,-1.573482275E0,-9.155677557E-1,4.039896131E-1
1.262423094E1,-1.604374051E0,-9.304810166E-1,4.115794003E-1
1.263417974E1,-1.609700203E0,-6.918688416E-1,4.201012850E-1
1.264411803E1,-1.597982645E0,-4.745613039E-1,4.135767221E-1
1.265405626E1,-1.540460110E0,-4.095821083E-1,4.135767221E-1
1.266399146E1,-1.501046538E0,-1.699046642E-1,3.773587942E-1
1.267392969E1,-1.521285892E0,1.741656065E-1,3.517931998E-1
1.268386797E1,-1.558569074E0,3.882774413E-1,3.070534170E-1
1.269380917E1,-1.579873681E0,4.628437459E-1,2.356828004E-1
1.270374740E1,-1.620352626E0,5.161054134E-1,1.344856620E-1
1.271368568E1,-1.664027095E0,4.713656008E-1,2.396774245E-3
1.272360318E1,-1.634200573E0,3.296896219E-1,-1.105179265E-1
1.273354131E1,-1.579873681E0,2.327534109E-1,-1.595186442E-1
1.274347943E1,-1.589460850E0,1.645784974E-1,-1.051917598E-1
1.275341454E1,-1.560699582E0,1.145125479E-1,-1.677742042E-2
1.276335266E1,-1.486133218E0,1.368824393E-1,5.565842614E-2
1.277329079E1,-1.414762616E0,1.123820841E-1,1.334204376E-1
1.278321704E1,-1.287999868E0,-4.420717061E-2,1.664426625E-1
1.279315521E1,-1.224085927E0,-7.296846062E-2,6.737598777E-2
1.280309334E1,-1.215564013E0,-5.166380107E-2,-3.808208182E-2
1.281307829E1,-1.164432883E0,-8.362079412E-2,-7.216953486E-2
1.282301641E1,-1.181476593E0,9.427312016E-2,-1.105179265E-1
1.283295454E1,-1.262434244E0,2.231663167E-1,-1.169093251E-1
1.284285693E1,-1.339131117E0,3.296896219E-1,-1.009308323E-1
1.285279506E1,-1.406240702E0,4.383433759E-1,-8.069140464E-2
1.286273318E1,-1.448850036E0,4.873441160E-1,-5.406057462E-2
1.287267776E1,-1.373218536E0,4.489957094E-1,1.091863867E-2
1.288261589E1,-1.301847935E0,3.456681073E-1,4.181039706E-2
1.289255402E1,-1.289065123E0,3.414071798E-1,3.462007269E-3
1.290247876E1,-1.196389794E0,1.368824393E-1,-2.929390874E-3
1.291241693E1,-1.171889424E0,1.688394397E-1,-9.560466558E-2
1.292235506E1,-1.203846455E0,2.551233172E-1,-1.818885356E-1
1.293230771E1,-1.194259405E0,2.689713240E-1,-2.276935577E-1
1.294224584E1,-1.197455049E0,3.201025128E-1,-2.138455361E-1
1.295218396E1,-1.238999128E0,4.745613039E-1,-1.552577168E-1
1.296214157E1,-1.254977703E0,5.821498632E-1,-1.041265279E-1
1.297207969E1,-1.230477333E0,5.896064639E-1,-5.832150951E-2
1.298201787E1,-1.188933253E0,5.416709781E-1,-1.145125460E-2
1.299193594E1,-1.147389174E0,5.065183043E-1,4.820179567E-2
1.300187407E1,-1.087736130E0,4.788222313E-1,1.035939083E-1
1.301181219E1,-1.037670135E0,3.957340717E-1,1.387466043E-1
1.302173261E1,-1.036604881E0,3.243634701E-1,1.217028722E-1
1.303167079E1,-1.049387693E0,3.414071798E-1,8.655018359E-2
1.304160896E1,-1.054713845E0,3.083849549E-1,1.944050193E-2
1.305156313E1,-1.035539627E0,2.711018026E-1,-4.660394415E-2
1.306150126E1,-1.008908868E0,2.849498391E-1,-8.388710022E-2
1.307143943E1,-9.939955473E-1,2.572537661E-1,-1.222354919E-1
1.308137073E1,-9.854736924E-1,1.933397949E-1,-1.179745570E-1
1.309130891E1,-9.513862729E-1,2.007964253E-1,-9.027849883E-2
1.310124704E1,-9.290163517E-1,2.913412452E-1,-9.880036116E-2
1.311121063E1,-8.991898298E-1,3.424724042E-1,-1.126483902E-1
1.312114876E1,-8.437976837E-1,3.627118468E-1,-1.190397888E-1
1.313108688E1,-7.947970033E-1,3.744294047E-1,-8.814803511E-2
1.314099672E1,-7.426005602E-1,4.138430357E-1,-2.956021577E-2
1.315093485E1,-6.701647043E-1,3.925383687E-1,1.331541222E-3
1.316087297E1,-5.753589869E-1,3.328853250E-1,-4.021254554E-2
1.317082360E1,-4.858794212E-1,2.945369184E-1,-6.258244067E-2
1.318076172E1,-4.400743842E-1,2.221010923E-1,-4.979964346E-2
1.319069990E1,-3.612471521E-1,1.209039465E-1,-4.873441160E-2
1.320062849E1,-2.866808474E-1,8.468602598E-2,-7.216953486E-2
1.321056667E1,-2.408758104E-1,9.746882319E-2,-7.856093347E-2
1.322050480E1,-1.780270636E-1,7.509893179E-2,-5.832150951E-2
1.323045178E1,-7.896039635E-2,2.663082443E-3,-3.062544949E-2
1.324038995E1,2.117150649E-2,-4.420717061E-2,-6.125089712E-3
1.325032808E1,9.147688746E-2,-5.166380107E-2,1.837527007E-2
1.326025037E1,1.468690038E-1,-5.805519968E-2,3.754946589E-2
1.327018860E1,2.011958808E-1,-7.190322876E-2,4.713656008E-2
1.328012667E1,2.587184608E-1,-7.935985923E-2,6.098458916E-2
1.329010157E1,3.162410557E-1,-6.551183015E-2,7.163692266E-2
1.330003974E1,3.812202811E-1,-7.509893179E-2,7.909355313E-2
1.330997787E1,4.525908828E-1,-1.070559174E-1,8.761541545E-2
1.331991318E1,5.111786723E-1,-1.272953451E-1,8.761541545E-2
1.332985131E1,5.750926733E-1,-1.304910481E-1,8.441971987E-2
1.333978948E1,6.379414201E-1,-1.091863886E-1,8.122401685E-2
1.334972698E1,6.805507541E-1,-7.296846062E-2,6.950645149E-2
1.335966516E1,7.274209857E-1,-6.764229387E-2,5.885412544E-2
1.336960334E1,7.828131318E-1,-9.214265645E-2,5.459319428E-2
1.337951636E1,8.137048483E-1,-8.894696087E-2,4.820179567E-2
1.338945454E1,8.488575816E-1,-7.616416365E-2,3.541899845E-2
1.339939271E1,9.021192193E-1,-9.746882319E-2,2.583190054E-2
1.340936188E1,9.447285533E-1,-1.177082509E-1,2.263620123E-2
1.341930000E1,9.766855240E-1,-1.272953451E-1,1.837527007E-2
1.342923818E1,1.008642554E0,-1.411433816E-1,1.944050193E-2
1.343915990E1,1.016099095E0,-1.464695334E-1,1.624480449E-2
1.344909808E1,1.033142924E0,-1.560566425E-1,1.198387146E-2
1.345903620E1,1.089600205E0,-1.976007223E-1,1.304910425E-2
1.346895678E1,1.151383758E0,-2.274272442E-1,4.527240526E-3
1.347889495E1,1.195058346E0,-2.252967805E-1,-6.125089712E-3
1.348883313E1,1.229145765E0,-2.316881865E-1,-1.464695390E-2
1.349877422E1,1.264298439E0,-2.604494691E-1,-2.316881903E-2
1.350871235E1,1.303712010E0,-2.721670270E-1,-2.849498391E-2
1.351865047E1,1.330342889E0,-2.519276142E-1,-2.849498391E-2
1.352860157E1,1.348451853E0,-2.476666719E-1,-3.062544949E-2
1.353853969E1,1.368691325E0,-2.551233172E-1,-4.127778113E-2
1.354847782E1,1.383604527E0,-2.679060996E-1,-5.086487532E-2
1.355839865E1,1.403843999E0,-2.551233172E-1,-5.512581021E-2
1.356833683E1,1.435800910E0,-3.179720640E-1,-4.873441160E-2
1.357827500E1,1.466692686E0,-3.840165138E-1,-4.660394415E-2
1.358823042E1,1.477345109E0,-3.840165138E-1,-3.914731368E-2
1.359816855E1,1.490127802E0,-3.808208108E-1,-2.210358530E-2
1.360810672E1,1.519954324E0,-3.712337017E-1,-7.989247679E-4
1.361804943E1,1.533802390E0,-3.563204408E-1,2.396774245E-3
1.362798761E1,1.545519948E0,-3.232982159E-1,-1.464695390E-2
1.363792573E1,1.554041862E0,-3.019935489E-1,-4.234301299E-2
1.364785667E1,1.559368014E0,-2.881455421E-1,-7.430000603E-2
1.365779480E1,1.548715711E0,-2.636451721E-1,-1.062569916E-1
1.366773292E1,1.524215341E0,-2.540580630E-1,-1.083874628E-1
1.367768558E1,1.556172252E0,-2.370143533E-1,-8.814803511E-2
1.368762376E1,1.589194536E0,-1.667089611E-1,-8.495233208E-2
1.369756188E1,1.583868384E0,-1.581871063E-1,-9.986559302E-2
1.370747016E1,1.568955064E0,-1.677742004E-1,-1.222354919E-1
1.371740834E1,1.557237506E0,-1.539261788E-1,-1.478010863E-1
1.372734652E1,1.562563658E0,-1.272953451E-1,-1.648448110E-1
1.373729573E1,1.583868384E0,-1.198387146E-1,-1.584534049E-1
1.374723386E1,1.600912094E0,-1.368824393E-1,-1.488663107E-1
1.375717204E1,1.609433889E0,-1.219691783E-1,-1.488663107E-1
1.376711360E1,1.605172992E0,-7.616416365E-2,-1.467358470E-1
1.377705172E1,1.591324925E0,-4.846810177E-2,-1.488663107E-1
1.378698990E1,1.582803130E0,-1.651111245E-2,-1.573881805E-1
1.379694271E1,1.565759420E0,4.740286991E-2,-1.573881805E-1
1.380688084E1,1.556172252E0,9.746882319E-2,-1.797580719E-1
1.381681902E1,1.566824675E0,9.959928691E-2,-2.266283184E-1
1.382672917E1,1.567889810E0,1.070559174E-1,-2.830856740E-1
1.383666735E1,1.533802390E0,1.059906855E-1,-3.203688264E-1
1.384660553E1,1.483736396E0,1.027949899E-1,-3.406082690E-1
1.385657469E1,1.464562297E0,1.464695334E-1,-3.501953483E-1
1.386651282E1,1.482671261E0,2.093182951E-1,-3.395430148E-1
1.387645099E1,1.498649716E0,2.252967805E-1,-3.374125659E-1
1.388637652E1,1.498649716E0,2.338186502E-1,-3.651086092E-1
1.389631464E1,1.480540752E0,2.679060996E-1,-3.981308341E-1
1.390625282E1,1.443257570E0,3.051892519E-1,-4.364792407E-1
1.391616855E1,1.404909253E0,2.987978756E-1,-4.524577260E-1
1.392610672E1,1.383604527E0,2.103835195E-1,-4.236964285E-1
1.393604485E1,1.392126441E0,9.853405505E-2,-3.906742036E-1
1.394599162E1,1.431540012E0,-5.326165119E-4,-3.619129062E-1
1.395592974E1,1.473084092E0,-5.059856921E-2,-3.459344208E-1
1.396586792E1,1.494388819E0,-3.888100386E-2,-3.576519787E-1
1.397582933E1,1.475214601E0,-3.462007269E-2,-3.544562757E-1
1.398576745E1,1.437931418E0,3.888100386E-2,-3.565867543E-1
1.399570563E1,1.427279115E0,6.231613085E-2,-3.533910513E-1
1.400563209E1,1.424083352E0,2.290250920E-2,-3.171731234E-1
1.401557021E1,1.435800910E0,4.420717061E-2,-3.075860441E-1
1.402550834E1,1.465627432E0,1.315562725E-1,-3.427387178E-1
1.403545834E1,1.456040382E0,1.102516204E-1,-3.203688264E-1
1.404539646E1,1.416626811E0,4.846810177E-2,-2.681724131E-1
1.405533464E1,1.399582982E0,4.846810177E-2,-2.383458912E-1
1.406525782E1,1.427279115E0,7.403369248E-2,-2.489982247E-1
1.407519594E1,1.473084092E0,1.368824393E-1,-2.756290436E-1
1.408513412E1,1.476279855E0,1.123820841E-1,-2.681724131E-1
1.409510219E1,1.432605267E0,3.994623944E-2,-2.532591522E-1
1.410504032E1,1.388930678E0,2.609820850E-2,-2.724333405E-1
1.411497849E1,1.372952223E0,4.527240247E-2,-3.256950080E-1
1.412489167E1,1.401713490E0,4.314193875E-2,-3.874785006E-1
1.413482980E1,1.438996673E0,1.438064594E-2,-4.077179432E-1
1.414476797E1,1.437931418E0,-1.011971384E-2,-3.629781604E-1
1.415471099E1,1.404909253E0,4.633763805E-2,-3.512606025E-1
1.416464912E1,1.362299919E0,1.123820841E-1,-3.533910513E-1
1.417458730E1,1.352712750E0,9.533835202E-2,-3.533910513E-1
1.418453407E1,1.395322084E0,5.858781748E-3,-3.619129062E-1
1.419447219E1,1.424083352E0,-7.190322876E-2,-3.501953483E-1
1.420441037E1,1.441127181E0,-3.035914153E-2,-3.661738634E-1
1.421433756E1,1.444322824E0,4.207670316E-2,-4.055874646E-1
1.422427568E1,1.419822454E0,3.781577200E-2,-4.268921316E-1
1.423421386E1,1.395322084E0,-3.568530455E-2,-4.290226102E-1
1.424416204E1,1.367626071E0,-1.294258088E-1,-3.906742036E-1
1.425410021E1,1.368691325E0,-1.496652365E-1,-3.619129062E-1
1.426403844E1,1.372952223E0,-1.581871063E-1,-3.555215299E-1
1.427397240E1,1.339929938E0,-1.411433816E-1,-3.469996452E-1
1.428391063E1,1.299451113E0,-8.894696087E-2,-3.086512685E-1
1.429384886E1,1.271755099E0,-1.757634431E-2,-2.468677461E-1
1.430379646E1,1.249385238E0,6.338136643E-2,-1.882799417E-1
1.431373469E1,1.217428207E0,1.528609395E-1,-1.648448110E-1
1.432367292E1,1.159905553E0,1.869483888E-1,-1.765623689E-1
1.433360157E1,1.025686264E0,1.123820841E-1,-1.584534049E-1
1.434353980E1,8.925321102E-1,9.746882319E-2,-1.723014414E-1
1.435347803E1,7.998568416E-1,1.134473160E-1,-2.117150575E-1
1.436340495E1,7.242252827E-1,1.070559174E-1,-2.500634491E-1
1.437334313E1,6.390066743E-1,1.006645188E-1,-2.756290436E-1
1.438328136E1,5.026568174E-1,6.870753318E-2,-2.436720580E-1
1.439323719E1,3.897421360E-1,1.081211492E-1,-2.362154275E-1
1.440317537E1,3.268933892E-1,1.400781423E-1,-2.276935577E-1
1.441311365E1,3.109148741E-1,1.422086060E-1,-1.861494780E-1
1.442301881E1,3.279586136E-1,1.645784974E-1,-1.339530498E-1
1.443295698E1,3.471328020E-1,1.858831644E-1,-8.814803511E-2
1.444289526E1,2.991973162E-1,2.242315561E-1,-3.701684624E-2
1.445286318E1,2.203700840E-1,2.519276142E-1,2.663082560E-4
1.446280141E1,1.436733007E-1,2.306229472E-1,3.967992961E-2
1.447273964E1,5.845466256E-2,1.667089611E-1,6.950645149E-2
1.448267256E1,-9.720250964E-3,7.083799690E-2,9.081111848E-2
1.449261079E1,-5.765573680E-2,-4.207670316E-2,9.613727778E-2
1.450254902E1,-1.077216864E-1,-1.507304758E-1,9.187635034E-2
1.451248167E1,-1.599181145E-1,-2.295577228E-1,8.122401685E-2
1.452241990E1,-1.940055639E-1,-2.625799477E-1,7.270215452E-2
1.453235813E1,-2.131797522E-1,-2.689713240E-1,6.204982474E-2
1.454231214E1,-2.206363827E-1,-2.615146935E-1,5.352795869E-2
1.455225037E1,-2.131797522E-1,-2.455362082E-1,4.500609636E-2
1.456218860E1,-2.057231218E-1,-2.274272442E-1,3.009283356E-2
1.457211063E1,-2.014621943E-1,-2.018616647E-1,1.517957076E-2
1.458204886E1,-1.865489334E-1,-1.677742004E-1,8.788172156E-3
1.459198709E1,-1.460700780E-1,-1.411433816E-1,1.304910425E-2
1.460190652E1,-7.256899774E-2,-1.230344176E-1,1.837527007E-2
1.461184469E1,2.117150649E-2,-8.575125784E-2,1.624480449E-2
1.462178292E1,1.213034093E-1,-3.035914153E-2,2.396774245E-3
1.463172823E1,2.107829899E-1,1.970681176E-2,-2.742975019E-2
1.464166646E1,2.800231278E-1,6.551183015E-2,-7.216953486E-2
1.465160469E1,3.109148741E-1,8.042509109E-2,-9.560466558E-2
1.466156990E1,2.960016131E-1,1.651111245E-2,-9.134373069E-2
1.467150813E1,2.981320918E-1,1.757634431E-2,-8.921326697E-2
1.468144636E1,2.864145339E-1,2.822867595E-2,-7.110430300E-2
1.469136454E1,2.565880120E-1,7.989247330E-3,-4.553871229E-2
1.470130277E1,1.948044896E-1,-7.989247330E-3,-1.677742042E-2
1.471124099E1,1.021292135E-1,-3.462007269E-2,1.091863867E-2
1.472117756E1,-5.459319334E-3,-8.362079412E-2,3.541899845E-2
1.473111573E1,-1.194392517E-1,-1.336867511E-1,5.352795869E-2
1.474105402E1,-2.259625494E-1,-1.720351279E-1,6.844121963E-2
1.475098995E1,-3.154421151E-1,-2.178401500E-1,8.015878499E-2
1.476092808E1,-3.889431953E-1,-2.583190203E-1,9.081111848E-2
1.477086620E1,-4.560528994E-1,-2.689713240E-1,9.933298081E-2
1.478079068E1,-5.274235010E-1,-2.572537661E-1,1.099853069E-1
1.479072886E1,-6.062507629E-1,-2.359491140E-1,1.270290315E-1
1.480066698E1,-6.904041767E-1,-2.135792226E-1,1.504641622E-1
1.481062115E1,-7.681661844E-1,-1.944050342E-1,1.813559234E-1
1.482055928E1,-8.342106342E-1,-1.486000121E-1,2.207695395E-1
1.483049740E1,-8.725590110E-1,-5.912043154E-2,2.655093372E-1
1.484043193E1,-8.959941268E-1,6.018566713E-2,3.070534170E-1
1.485037006E1,-9.236901999E-1,1.699046642E-1,3.390104175E-1
1.486030818E1,-9.790822864E-1,2.210358530E-1,3.677717149E-1
1.487025146E1,-1.050452948E0,2.263620198E-1,3.944025338E-1
1.488018959E1,-1.118627787E0,2.327534109E-1,4.178376496E-1
1.489012771E1,-1.185737491E0,2.742975056E-1,4.350145459E-1
1.490006792E1,-1.261369109E0,3.414071798E-1,4.477973282E-1
1.491000605E1,-1.357240081E0,4.372781515E-1,4.637758136E-1
1.491994417E1,-1.460567594E0,5.054530501E-1,4.904066622E-1
1.492987469E1,-1.551112413E0,4.021254778E-1,5.287550688E-1
1.493981282E1,-1.643787742E0,2.029268891E-1,5.809514523E-1
1.494975094E1,-1.735397696E0,2.018616647E-1,6.288869381E-1
1.495969678E1,-1.805703163E0,4.202344418E-1,6.629744172E-1
1.496963490E1,-1.855769038E0,6.290200949E-1,6.928009391E-1
1.497957303E1,-1.886660814E0,6.620423198E-1,7.087793946E-1
1.498949912E1,-1.845116735E0,5.107792616E-1,6.981270909E-1
1.499943724E1,-1.795050740E0,3.509942889E-1,6.448654532E-1
1.500937542E1,-1.838725328E0,3.850817382E-1,5.713643432E-1
1.501931568E1,-1.932465911E0,4.916050434E-1,4.808195531E-1
1.502925386E1,-1.938857317E0,4.607132971E-1,3.432713449E-1
1.503919198E1,-1.867486596E0,3.499290347E-1,1.973344237E-1
1.504915719E1,-1.806768417E0,2.881455421E-1,1.078548431E-1
1.505909532E1,-1.747115254E0,1.848179251E-1,1.344856620E-1
1.506903344E1,-1.644852996E0,-9.427312016E-2,2.750964165E-1
1.507897407E1,-1.560699582E0,-4.298215210E-1,3.869459033E-1
1.508891219E1,-1.607569814E0,-5.480623841E-1,3.081186414E-1
1.509885032E1,-1.766289473E0,-3.190372884E-1,9.613727778E-2
1.510875870E1,-1.948444366E0,-7.935985923E-2,1.198387146E-2
1.511869683E1,-2.121012211E0,-3.994623944E-2,1.355509013E-1
1.512863501E1,-2.219013453E0,-8.149032295E-2,3.645760119E-1
1.513856303E1,-2.193448067E0,-1.411433816E-1,6.065170765E-1
1.514850120E1,-2.122077227E0,-1.826874614E-1,7.439321280E-1
1.515843933E1,-2.081598520E0,-2.146444470E-1,7.599105835E-1
1.516840292E1,-2.011293173E0,-3.286243975E-1,6.587134600E-1
1.517834105E1,-1.815290213E0,-5.651060939E-1,4.765586257E-1
1.518827917E1,-1.590526104E0,-7.089125514E-1,3.443365693E-1
1.519822631E1,-1.511698842E0,-6.311505437E-1,2.729659677E-1
1.520816443E1,-1.648048639E0,-3.946688473E-1,2.601831555E-1
1.521810256E1,-1.822746873E0,-2.167749256E-1,3.240971565E-1
1.522800907E1,-1.855769038E0,-1.635132730E-1,4.071853161E-1
1.523794719E1,-1.767354727E0,-2.306229472E-1,4.531235099E-1
1.524788532E1,-1.654440045E0,-4.106473327E-1,4.252942801E-1
1.525782599E1,-1.611830711E0,-5.193011165E-1,3.826849759E-1
1.526776412E1,-1.639526725E0,-4.223648906E-1,3.773587942E-1
1.527770224E1,-1.603308797E0,-3.669727743E-1,3.315537870E-1
1.528766501E1,-1.559634328E0,-4.458000064E-1,2.378132790E-1
1.529760308E1,-1.627809167E0,-4.095821083E-1,1.770949960E-1
1.530754120E1,-1.678940415E0,-3.158415854E-1,1.973344237E-1
1.531748662E1,-1.650179148E0,-2.945369184E-1,2.058562785E-1
1.532742474E1,-1.694918871E0,-1.667089611E-1,2.133129090E-1
1.533736282E1,-1.738593459E0,-5.059856921E-2,1.632469594E-1
1.534727829E1,-1.675744653E0,-3.568530455E-2,3.222329915E-2
1.535721636E1,-1.628874421E0,-5.805519968E-2,-5.725627393E-2
1.536715448E1,-1.592656493E0,-7.403369248E-2,-1.264964193E-1
1.537709537E1,-1.592656493E0,3.994623944E-2,-2.298240215E-1
1.538703344E1,-1.624613523E0,1.304910481E-1,-2.532591522E-1
1.539697157E1,-1.640591979E0,1.645784974E-1,-1.999974996E-1
1.540692349E1,-1.689592719E0,3.232982159E-1,-1.861494780E-1
1.541686157E1,-1.710897446E0,4.181039631E-1,-1.233007237E-1
1.542679969E1,-1.685331821E0,4.862788618E-1,-7.856093347E-2
1.543674443E1,-1.609700203E0,4.798874855E-1,-3.701684624E-2
1.544668256E1,-1.567090988E0,4.926702678E-1,-1.571218669E-2
1.545662063E1,-1.563895226E0,5.033226013E-1,-1.571218669E-2
1.546652693E1,-1.507437825E0,4.511261880E-1,-2.423405088E-2
1.547646506E1,-1.449915290E0,3.818860352E-1,-7.110430300E-2
1.548640318E1,-1.424349666E0,3.222329915E-1,-1.275616586E-1
1.549634855E1,-1.401979804E0,2.146444470E-1,-1.137136221E-1
1.550628667E1,-1.358305216E0,1.177082509E-1,-6.364767253E-2
1.551622480E1,-1.351913810E0,2.647103965E-1,-7.003907114E-2
1.552619167E1,-1.337000608E0,2.732322812E-1,-1.464695390E-2
1.553612974E1,-1.302913189E0,1.336867511E-1,5.991935730E-2
1.554606787E1,-1.308239341E0,1.400781423E-1,7.376738638E-2
1.555599735E1,-1.286934614E0,1.784265339E-1,8.761541545E-2
1.556593547E1,-1.265630007E0,1.560566425E-1,8.122401685E-2
1.557587355E1,-1.266695261E0,1.922745556E-1,4.926702753E-2
1.558581834E1,-1.260303855E0,2.370143533E-1,9.853405878E-3
1.559575641E1,-1.242194891E0,1.784265339E-1,-2.636451647E-2
1.560569454E1,-1.174019933E0,1.379476786E-1,-1.997311972E-2
1.561563053E1,-1.132475853E0,2.071878165E-1,2.796236612E-2
1.562556860E1,-1.142062902E0,3.520595133E-1,6.631075591E-2
1.563550672E1,-1.176150441E0,3.126458824E-1,1.121157780E-1
1.564543271E1,-1.203846455E0,2.466014475E-1,1.472684592E-1
1.565537079E1,-1.193194151E0,3.126458824E-1,1.589860320E-1
1.566530891E1,-1.168693781E0,3.382114768E-1,1.270290315E-1
1.567523110E1,-1.140997767E0,2.476666719E-1,5.033225939E-2
1.568516922E1,-1.104779840E0,1.752308309E-1,-4.447348043E-2
1.569510735E1,-1.078148961E0,1.709699035E-1,-1.169093251E-1
1.570505386E1,-1.009974003E0,2.167749256E-1,-1.371487528E-1
1.571499193E1,-9.662995338E-1,2.455362082E-1,-9.986559302E-2
1.572493006E1,-9.812127948E-1,2.966673970E-1,-3.488638252E-2
1.573488063E1,-9.939955473E-1,3.201025128E-1,-5.059856921E-3
1.574481870E1,-9.567124248E-1,3.360810280E-1,8.788172156E-3
1.575475683E1,-8.970593810E-1,3.083849549E-1,3.541899845E-2
1.576467547E1,-8.363410830E-1,2.487319112E-1,2.157096937E-2
1.577461360E1,-7.947970033E-1,2.263620198E-1,-4.340824485E-2
1.578455178E1,-7.404701114E-1,1.773612946E-1,-1.307573467E-1
1.579450881E1,-6.935998797E-1,1.571218669E-1,-1.456706226E-1
1.580444693E1,-6.488600373E-1,1.976007223E-1,-8.495233208E-2
1.581438506E1,-5.561847687E-1,2.125139832E-1,-4.979964346E-2
1.582429954E1,-4.667052329E-1,1.368824393E-1,-3.382114694E-2
1.583423766E1,-3.793561161E-1,7.403369248E-2,-1.464695390E-2
1.584417584E1,-3.026593328E-1,2.396774292E-2,2.396774245E-3
1.585413610E1,-2.504629195E-1,-1.438064594E-2,-9.320789017E-3
1.586407422E1,-1.780270636E-1,-4.420717061E-2,-3.914731368E-2
1.587401235E1,-1.077216864E-1,-5.805519968E-2,-7.323476672E-2
1.588393256E1,-5.339480564E-2,-4.740286991E-2,-9.134373069E-2
1.589387063E1,1.584534161E-2,-5.166380107E-2,-7.430000603E-2
1.590380881E1,8.402025700E-2,-3.248960897E-2,-4.660394415E-2
1.591375724E1,1.383471340E-1,3.035914153E-2,-3.062544949E-2
1.592369537E1,1.756303012E-1,9.214265645E-2,-2.423405088E-2
1.593363349E1,2.097177505E-1,1.134473160E-1,-1.784265228E-2
1.594355928E1,2.746969759E-1,7.083799690E-2,-2.316881903E-2
1.595349740E1,3.524589837E-1,1.331541315E-2,-3.914731368E-2
1.596343558E1,4.323514402E-1,-4.420717061E-2,-4.234301299E-2
1.597337152E1,5.026568174E-1,-8.042509109E-2,-4.021254554E-2
1.598330964E1,5.559184551E-1,-8.788172156E-2,-4.127778113E-2
1.599324782E1,5.995930433E-1,-9.107742459E-2,-3.382114694E-2
1.600321355E1,6.517894268E-1,-7.403369248E-2,-2.742975019E-2
1.601315167E1,6.912030578E-1,-3.675054014E-2,-2.529928461E-2
1.602308980E1,7.508561015E-1,-3.035914153E-2,-1.251648832E-2
1.603301964E1,7.934654355E-1,-5.485950038E-2,-1.251648832E-2
1.604295776E1,8.275529146E-1,-8.575125784E-2,-2.636451647E-2
1.605289589E1,8.786841035E-1,-1.443390697E-1,-3.595161438E-2
1.606282646E1,9.223586321E-1,-1.581871063E-1,-3.382114694E-2
1.607276454E1,9.532504082E-1,-1.390129030E-1,-2.316881903E-2
1.608270271E1,9.809464812E-1,-1.336867511E-1,-8.255556226E-3
1.609264261E1,1.026751518E0,-1.539261788E-1,1.944050193E-2
1.610258073E1,1.075752258E0,-2.103835195E-1,5.246272683E-2
1.611251886E1,1.119426727E0,-2.189053893E-1,8.015878499E-2
1.612248219E1,1.154579401E0,-1.986659616E-1,9.187635034E-2
1.613242032E1,1.180145025E0,-1.890788674E-1,8.015878499E-2
1.614235844E1,1.206775904E0,-1.837527007E-1,5.778888986E-2
1.615227099E1,1.230211020E0,-2.039921284E-1,3.648423031E-2
1.616220912E1,1.251515627E0,-1.890788674E-1,2.157096937E-2
1.617214724E1,1.267494202E0,-1.592523307E-1,5.592473317E-3
1.618210974E1,1.262167931E0,-1.475347728E-1,-8.255556226E-3
1.619204787E1,1.262167931E0,-1.272953451E-1,-2.103835158E-2
1.620198599E1,1.270689845E0,-1.358172148E-1,-2.529928461E-2
1.621191334E1,1.268559337E0,-1.358172148E-1,-2.316881903E-2
1.622185146E1,1.285603046E0,-1.390129030E-1,-1.677742042E-2
1.623178959E1,1.331408143E0,-1.326215118E-1,-9.320789017E-3
1.624173021E1,1.408104897E0,-1.486000121E-1,2.396774245E-3
1.625166834E1,1.454975128E0,-1.933397949E-1,7.722939365E-3
1.626160646E1,1.467757940E0,-1.794917583E-1,3.462007269E-3
1.627152709E1,1.486932158E0,-2.210358530E-1,1.411433797E-2
1.628146521E1,1.491193056E0,-2.934716940E-1,1.198387146E-2
1.629140339E1,1.493323565E0,-2.998631001E-1,-1.358172111E-2
1.630133704E1,1.492258310E0,-2.753627300E-1,-3.701684624E-2
1.631127521E1,1.479475498E0,-2.604494691E-1,-3.701684624E-2
1.632121339E1,1.487997413E0,-2.274272442E-1,-5.619104207E-2
1.633117750E1,1.493323565E0,-1.890788674E-1,-7.003907114E-2
1.634111568E1,1.487997413E0,-1.752308309E-1,-5.193011090E-2
1.635105381E1,1.496519208E0,-1.794917583E-1,-2.636451647E-2
1.636095626E1,1.514628172E0,-1.762960702E-1,-2.929390874E-3
1.637089443E1,1.529541492E0,-1.720351279E-1,1.091863867E-2
1.638083261E1,1.511432528E0,-1.304910481E-1,2.396774245E-3
1.639079381E1,1.513562918E0,-1.315562725E-1,2.663082560E-4
1.640073193E1,1.535932899E0,-1.198387146E-1,-5.059856921E-3
1.641067011E1,1.529541492E0,-9.640359133E-2,-2.956021577E-2
1.642059355E1,1.517823935E0,-7.190322876E-2,-3.488638252E-2
1.643053172E1,1.530606747E0,-1.438064594E-2,-3.382114694E-2
1.644046990E1,1.510367274E0,-1.225017942E-2,-4.340824485E-2
1.645041526E1,1.497584462E0,-5.379426852E-2,-3.914731368E-2
1.646035339E1,1.511432528E0,-3.568530455E-2,-4.127778113E-2
1.647029162E1,1.513562918E0,1.011971384E-2,-5.619104207E-2
1.648023126E1,1.512497783E0,-4.793548491E-3,-7.003907114E-2
1.649016938E1,1.501845360E0,5.858781748E-3,-7.003907114E-2
1.650010756E1,1.459236145E0,9.001219273E-2,-6.790860742E-2
1.651004886E1,1.428344369E0,1.720351279E-1,-8.282186836E-2
1.651998704E1,1.424083352E0,1.922745556E-1,-1.041265279E-1
1.652992516E1,1.427279115E0,1.752308309E-1,-1.296921223E-1
1.653987605E1,1.424083352E0,1.624480337E-1,-1.701709777E-1
1.654981422E1,1.412365794E0,1.773612946E-1,-2.181064636E-1
1.655975235E1,1.387865424E0,1.581871063E-1,-2.085193694E-1
1.656968990E1,1.368691325E0,1.006645188E-1,-1.659100503E-1
1.657962803E1,1.363365173E0,8.042509109E-2,-1.595186442E-1
1.658956620E1,1.374017477E0,6.977276504E-2,-1.701709777E-1
1.659950974E1,1.384669781E0,5.379426852E-2,-2.021279633E-1
1.660944792E1,1.370821714E0,9.320788831E-2,-2.681724131E-1
1.661938605E1,1.348451853E0,1.017297506E-1,-2.894770801E-1
1.662931058E1,1.338864803E0,8.149032295E-2,-2.766942680E-1
1.663924870E1,1.348451853E0,1.336867511E-1,-2.937380075E-1
1.664918688E1,1.348451853E0,1.677742004E-1,-2.788247466E-1
1.665911964E1,1.322886229E0,1.858831644E-1,-2.404763550E-1
1.666905776E1,1.286668301E0,1.826874614E-1,-2.159759998E-1
1.667899594E1,1.274950743E0,1.049254537E-1,-2.106498331E-1
1.668893922E1,1.295190215E0,2.663082443E-3,-2.266283184E-1
1.669887735E1,1.315429688E0,-3.355484083E-2,-2.703028917E-1
1.670881553E1,1.321820974E0,-1.011971384E-2,-3.256950080E-1
1.671876834E1,1.316494823E0,3.248960897E-2,-3.810871243E-1
1.672870652E1,1.291994452E0,7.722939551E-2,-4.215659797E-1
1.673864464E1,1.264298439E0,8.894696087E-2,-4.236964285E-1
1.674858266E1,1.242993832E0,4.846810177E-2,-3.917394578E-1
1.675852079E1,1.235537171E0,8.468602598E-2,-3.704347908E-1
1.676845896E1,1.224884868E0,1.677742004E-1,-3.491301239E-1
1.677839855E1,1.203580141E0,2.700365782E-1,-3.448691964E-1
1.678833678E1,1.189732075E0,3.840165138E-1,-3.533910513E-1
1.679827506E1,1.167362213E0,3.754946291E-1,-3.384777904E-1
1.680821396E1,1.155644655E0,3.115806580E-1,-3.256950080E-1
1.681815219E1,1.190797329E0,1.826874614E-1,-3.267602324E-1
1.682809042E1,1.241928577E0,2.822867595E-2,-3.597824574E-1
1.683798693E1,1.270689845E0,-4.420717061E-2,-4.311530590E-1
1.684792521E1,1.265363693E0,-6.551183015E-2,-5.025236607E-1
1.685786344E1,1.234471917E0,-7.616416365E-2,-5.461982489E-1
1.686781344E1,1.170557976E0,-9.001219273E-2,-5.430025458E-1
1.687775172E1,1.139666200E0,-6.870753318E-2,-5.206326246E-1
1.688769000E1,1.181210279E0,-6.764229387E-2,-4.940018058E-1
1.689762204E1,1.256841779E0,-7.190322876E-2,-4.524577260E-1
1.690756026E1,1.359104156E0,-3.888100386E-2,-4.151745737E-1
1.691749849E1,1.527410984E0,-1.486000121E-1,-4.002613127E-1
1.692747693E1,1.723413825E0,-4.053211510E-1,-3.853480518E-1
1.693741521E1,1.844850421E0,-5.533885360E-1,-3.704347908E-1
1.694735349E1,1.847114086E0,-5.203663111E-1,-3.310211599E-1
1.695726422E1,1.783066869E0,-4.202344418E-1,-2.692376375E-1
1.696720245E1,1.711696267E0,-3.424724042E-1,-2.340849638E-1
1.697714073E1,1.642456174E0,-2.753627300E-1,-2.372806519E-1
1.698707928E1,1.574281216E0,-1.890788674E-1,-2.436720580E-1
1.699701751E1,1.510367274E0,-9.853405505E-2,-2.362154275E-1
1.700695573E1,1.464562297E0,-7.989247330E-3,-2.287587970E-1
1.701688172E1,1.447518468E0,6.018566713E-2,-2.426068187E-1
1.702682000E1,1.423018217E0,9.533835202E-2,-2.276935577E-1
1.703675823E1,1.392126441E0,1.667089611E-1,-2.266283184E-1
1.704670922E1,1.336734295E0,2.114487588E-1,-2.276935577E-1
1.705664745E1,1.231276274E0,1.549914032E-1,-2.319544852E-1
1.706658568E1,1.109839678E0,8.042509109E-2,-2.734985650E-1
1.707653636E1,9.926640391E-1,3.355484083E-2,-3.267602324E-1
1.708647464E1,8.829450011E-1,-1.757634431E-2,-3.629781604E-1
1.709641287E1,7.412690520E-1,-1.443390697E-1,-3.491301239E-1
1.710633256E1,5.985277891E-1,-2.157096863E-1,-3.469996452E-1
1.711627079E1,4.824174047E-1,-1.869483888E-1,-3.491301239E-1
1.712620907E1,3.961335421E-1,-1.081211492E-1,-3.438039720E-1
1.713616198E1,3.354152441E-1,1.597849536E-3,-3.256950080E-1
1.714610021E1,2.533923090E-1,-2.396774292E-2,-2.671071887E-1
1.715603849E1,1.734998226E-1,-7.403369248E-2,-2.266283184E-1
1.716596204E1,1.021292135E-1,-7.935985923E-2,-1.999974996E-1
1.717590027E1,3.821523488E-2,-3.675054014E-2,-1.648448110E-1
1.718583849E1,1.997311832E-3,4.740286991E-2,-1.243659556E-1
1.719576698E1,-2.037258074E-2,1.251648813E-1,-7.003907114E-2
1.720570527E1,-4.274247587E-2,1.805569977E-1,-9.320789017E-3
1.721564355E1,-5.659050494E-2,1.976007223E-1,4.926702753E-2
1.722557990E1,-5.019910634E-2,1.688394397E-1,9.933298081E-2
1.723551818E1,-3.954677656E-2,1.251648813E-1,1.366161406E-1
1.724545646E1,-3.741630912E-2,7.935985923E-2,1.525946259E-1
1.725542662E1,-4.061200842E-2,1.757634431E-2,1.504641622E-1
1.726536485E1,-4.487293959E-2,-3.248960897E-2,1.355509013E-1
1.727530313E1,-4.806863889E-2,-4.846810177E-2,1.078548431E-1
1.728523855E1,-4.593817517E-2,-1.438064594E-2,7.376738638E-2
1.729517672E1,-4.913387448E-2,5.592473224E-2,3.435376659E-2
1.730511495E1,-6.617759913E-2,1.059906855E-1,1.331541222E-3
1.731504849E1,-8.641702682E-2,1.166430190E-1,-1.677742042E-2
1.732498672E1,-9.067796171E-2,1.038602218E-1,-2.529928461E-2
1.733492490E1,-8.535179496E-2,6.018566713E-2,-2.316881903E-2
1.734483928E1,-8.002562821E-2,-5.326165119E-4,-9.320789017E-3
1.735477750E1,-7.150376588E-2,-5.485950038E-2,1.624480449E-2
1.736471573E1,-6.830807030E-2,-9.853405505E-2,5.246272683E-2
1.737468219E1,-7.363422960E-2,-1.304910481E-1,8.761541545E-2
1.738462037E1,-9.067796171E-2,-1.294258088E-1,1.121157780E-1
1.739455860E1,-1.130478531E-1,-1.049254537E-1,1.217028722E-1
1.740449474E1,-1.375482082E-1,-6.125089899E-2,1.163767055E-1
1.741443292E1,-1.599181145E-1,-4.793548491E-3,1.035939083E-1
1.742437115E1,-1.854836941E-1,3.781577200E-2,9.720251709E-2
1.743430714E1,-2.227668613E-1,5.485950038E-2,9.294158220E-2
1.744424537E1,-2.600499988E-1,7.403369248E-2,8.761541545E-2
1.745418355E1,-2.856155932E-1,1.102516204E-1,8.974587917E-2
1.746412469E1,-3.101159632E-1,1.432738453E-1,9.613727778E-2
1.747406287E1,-3.388772607E-1,1.560566425E-1,1.089200750E-1
1.748400110E1,-3.687037826E-1,1.560566425E-1,1.227681041E-1
1.749394271E1,-4.027912319E-1,1.486000121E-1,1.366161406E-1
1.750388089E1,-4.475310147E-1,1.230344176E-1,1.483336985E-1
1.751381912E1,-5.007926822E-1,7.083799690E-2,1.621817350E-1
1.752375162E1,-5.476629138E-1,1.864157803E-2,1.760297567E-1
1.753368980E1,-5.806851387E-1,1.597849536E-3,1.920082569E-1
1.754362803E1,-6.147726178E-1,2.663082443E-3,2.079867423E-1
1.755356693E1,-6.605776548E-1,2.077204362E-2,2.239652425E-1
1.756350516E1,-7.244915962E-1,8.362079412E-2,2.388785034E-1
1.757344334E1,-8.192973733E-1,1.869483888E-1,2.569874525E-1
1.758335969E1,-9.386034608E-1,2.913412452E-1,2.846835256E-1
1.759329792E1,-1.079214215E0,3.264939189E-1,3.230319023E-1
1.760323615E1,-1.228346825E0,2.796236575E-1,3.709673882E-1
1.761320006E1,-1.347652912E0,2.029268891E-1,4.264926612E-1
1.762313829E1,-1.416893125E0,1.219691783E-1,4.925371110E-1
1.763307646E1,-1.465893745E0,9.107742459E-2,5.596467853E-1
1.764299120E1,-1.528742552E0,1.613828093E-1,6.139736772E-1
1.765292938E1,-1.595852256E0,2.657756507E-1,6.459306479E-1
1.766286761E1,-1.620352626E0,3.264939189E-1,6.629744172E-1
1.767282907E1,-1.595852256E0,3.456681073E-1,6.757571697E-1
1.768276724E1,-1.582004189E0,3.786903322E-1,6.789528728E-1
1.769270547E1,-1.602243662E0,4.479304850E-1,6.523220539E-1
1.770265146E1,-1.629939675E0,4.873441160E-1,6.075822711E-1
1.771258964E1,-1.602243662E0,4.553871155E-1,5.468640327E-1
1.772252787E1,-1.526612043E0,4.255605936E-1,4.808195531E-1
1.773243870E1,-1.506372690E0,5.278229713E-1,4.446016252E-1
1.774237688E1,-1.583069444E0,7.493914366E-1,4.147751033E-1
1.775231511E1,-1.681070924E0,8.239577413E-1,3.816197217E-1
1.776227308E1,-1.664027095E0,5.885412693E-1,3.368799388E-1
1.777221126E1,-1.517024994E0,2.189053893E-1,2.452699095E-1
1.778214948E1,-1.379609942E0,-5.379426852E-2,1.504641622E-1
1.779207756E1,-1.420088768E0,-7.829462737E-2,1.195724085E-1
1.780201573E1,-1.713027835E0,4.633763805E-2,1.174419373E-1
1.781195391E1,-2.116751194E0,1.102516204E-1,9.826774895E-2
1.782187282E1,-2.375602722E0,6.018566713E-2,9.507204592E-2
1.783181105E1,-2.397972584E0,-1.784265339E-1,1.632469594E-1
1.784174917E1,-2.229665756E0,-6.343462467E-1,2.974663079E-1
1.785169870E1,-1.989988446E0,-1.098787904E0,4.167724252E-1
1.786163688E1,-1.792920351E0,-1.163767099E0,4.275579154E-1
1.787157506E1,-1.645918131E0,-8.431319594E-1,3.880111277E-1
1.788153178E1,-1.567090988E0,-6.258243918E-1,4.243622124E-1
1.789146995E1,-1.563895226E0,-6.716294289E-1,4.818847775E-1
1.790140813E1,-1.560699582E0,-7.738918066E-1,4.999937415E-1
1.791133167E1,-1.545786262E0,-7.270215154E-1,4.637758136E-1
1.792126985E1,-1.582004189E0,-5.533885360E-1,3.422061205E-1
1.793120803E1,-1.645918131E0,-4.884093404E-1,2.314218730E-1
1.794115730E1,-1.637396336E0,-5.608451962E-1,1.930734813E-1
1.795109542E1,-1.535133958E0,-5.970631242E-1,2.101172209E-1
1.796103365E1,-1.443523884E0,-4.798874855E-1,2.601831555E-1
1.797095954E1,-1.408371210E0,-3.019935489E-1,3.166405261E-1
1.798089771E1,-1.438197732E0,-1.464695334E-1,3.485974967E-1
1.799083589E1,-1.501046538E0,-3.888100386E-2,3.432713449E-1
1.800079178E1,-1.519155502E0,4.527240247E-2,2.697702646E-1
1.801072995E1,-1.498916030E0,1.486000121E-1,1.483336985E-1
1.802066813E1,-1.470154762E0,1.837527007E-1,6.311506033E-2
1.803059172E1,-1.487198472E0,2.231663167E-1,1.331541222E-3
1.804052990E1,-1.592656493E0,3.733641803E-1,-5.832150951E-2
1.805046808E1,-1.646983385E0,4.585828185E-1,-1.105179265E-1
1.806041896E1,-1.592656493E0,4.564523399E-1,-1.467358470E-1
1.807035714E1,-1.544721007E0,4.063864052E-1,-1.872147024E-1
1.808029526E1,-1.525546789E0,2.423405200E-1,-1.946713328E-1
1.809022313E1,-1.448850036E0,7.403369248E-2,-1.541924775E-1
1.810016131E1,-1.432871580E0,9.427312016E-2,-2.255630940E-1
1.811009948E1,-1.422219276E0,7.989247330E-3,-3.065207899E-1
1.812004818E1,-1.470154762E0,6.924014539E-3,-3.896089792E-1
1.812998636E1,-1.523416400E0,2.609820850E-2,-4.087831676E-1
1.813992454E1,-1.528742552E0,7.509893179E-2,-3.448691964E-1
1.814984553E1,-1.504242182E0,2.817541361E-1,-3.107817471E-1
1.815978370E1,-1.446719646E0,3.147763610E-1,-2.489982247E-1
1.816972188E1,-1.417958260E0,3.009283245E-1,-1.882799417E-1
1.817967860E1,-1.382805586E0,3.296896219E-1,-1.541924775E-1
1.818961678E1,-1.307174087E0,3.435376585E-1,-1.691057384E-1
1.819955495E1,-1.233672976E0,3.073197305E-1,-1.850842386E-1
1.820948391E1,-1.201715946E0,2.636451721E-1,-1.573881805E-1
1.821942204E1,-1.196389794E0,2.956021726E-1,-1.190397888E-1
1.822936026E1,-1.226216316E0,3.446028829E-1,-1.691057384E-1
1.823928698E1,-1.233672976E0,2.934716940E-1,-2.213021666E-1
1.824922516E1,-1.219824910E0,1.858831644E-1,-2.181064636E-1
1.825916334E1,-1.223020673E0,2.071878165E-1,-1.488663107E-1
1.826909287E1,-1.227281570E0,3.232982159E-1,-9.347419441E-2
1.827903105E1,-1.187867999E0,3.467333615E-1,-6.684337556E-2
1.828896922E1,-1.095192671E0,2.924064696E-1,-6.258244067E-2
1.829890933E1,-1.008908868E0,1.912093312E-1,-7.003907114E-2
1.830884740E1,-9.386034608E-1,1.113168523E-1,-3.488638252E-2
1.831878553E1,-8.991898298E-1,8.468602598E-2,1.198387146E-2
1.832876224E1,-8.800156116E-1,8.042509109E-2,3.115806542E-2
1.833870032E1,-8.757547140E-1,8.788172156E-2,1.837527007E-2
1.834863844E1,-8.917331696E-1,1.177082509E-1,-1.571218669E-2
1.835852855E1,-8.874722719E-1,1.922745556E-1,-3.701684624E-2
1.836846667E1,-8.927984238E-1,2.061225921E-1,-1.997311972E-2
1.837840480E1,-8.874722719E-1,2.540580630E-1,-1.358172111E-2
1.838835844E1,-8.427324891E-1,3.467333615E-1,-1.038602181E-2
1.839829652E1,-8.033188581E-1,3.797555864E-1,-1.145125460E-2
1.840823464E1,-7.894708514E-1,3.925383687E-1,-4.447348043E-2
1.841816568E1,-7.660356760E-1,3.680379987E-1,-9.134373069E-2
1.842810381E1,-7.404701114E-1,3.190372884E-1,-1.105179265E-1
1.843804193E1,-6.904041767E-1,2.774932086E-1,-1.190397888E-1
1.844800000E1,-6.371424794E-1,2.348838747E-1,-1.147788614E-1
1.845793808E1,-6.030550599E-1,2.231663167E-1,-8.814803511E-2
1.846787620E1,-5.710980296E-1,2.444709837E-1,-6.364767253E-2
1.847783011E1,-5.423367620E-1,3.083849549E-1,-2.742975019E-2
1.848776823E1,-5.370106101E-1,3.946688473E-1,-1.864157850E-3
1.849770631E1,-5.487281680E-1,4.447347820E-1,6.657706574E-3
1.850764079E1,-5.242277980E-1,3.978645205E-1,-9.320789017E-3
1.851757886E1,-4.752270877E-1,3.637770712E-1,-4.660394415E-2
1.852751698E1,-4.507267177E-1,3.754946291E-1,-6.471290439E-2
1.853742172E1,-4.326177537E-1,3.754946291E-1,-4.234301299E-2
1.854735985E1,-3.718994856E-1,3.350157738E-1,-2.423405088E-2
1.855729797E1,-3.069202602E-1,2.540580630E-1,-2.529928461E-2
1.856727126E1,-2.866808474E-1,1.837527007E-1,-2.929390874E-3
1.857720933E1,-2.781589627E-1,1.805569977E-1,2.263620123E-2
1.858714745E1,-2.579195499E-1,2.221010923E-1,2.796236612E-2
1.859709198E1,-2.419410497E-1,2.636451721E-1,3.009283356E-2
1.860703011E1,-1.758965999E-1,2.061225921E-1,4.527240526E-3
1.861696818E1,-1.258306503E-1,2.050573528E-1,-1.784265228E-2
1.862686235E1,-1.087869257E-1,2.093182951E-1,4.527240526E-3
1.863680047E1,-6.404713541E-2,1.464695334E-1,5.885412544E-2
1.864673860E1,-3.102491237E-2,1.049254537E-1,1.195724085E-1
1.865671047E1,-3.848154470E-2,1.081211492E-1,1.387466043E-1
1.866664855E1,-1.078548469E-2,8.894696087E-2,1.270290315E-1
1.867658667E1,4.034570232E-2,4.846810177E-2,1.302247345E-1
1.868650672E1,7.017222792E-2,3.035914153E-2,1.280942708E-1
1.869644480E1,8.615072072E-2,-5.858781748E-3,1.185071766E-1
1.870638292E1,1.298252791E-1,-7.190322876E-2,1.238333359E-1
1.871633000E1,1.660431921E-1,-1.134473160E-1,1.334204376E-1
1.872626813E1,1.916087866E-1,-1.049254537E-1,1.334204376E-1
1.873620620E1,2.374138087E-1,-1.134473160E-1,1.291595101E-1
1.874613381E1,2.981320918E-1,-1.390129030E-1,1.398118287E-1
1.875607188E1,3.545894325E-1,-1.496652365E-1,1.621817350E-1
1.876601001E1,3.929378390E-1,-1.571218669E-1,1.770949960E-1
1.877594329E1,4.366123974E-1,-1.688394397E-1,1.877473146E-1
1.878588136E1,4.643084407E-1,-1.762960702E-1,1.920082569E-1
1.879581948E1,4.898740351E-1,-1.592523307E-1,1.909430176E-1
1.880576896E1,5.452661514E-1,-1.720351279E-1,2.058562785E-1
1.881570709E1,5.963973403E-1,-2.178401500E-1,2.292914093E-1
1.882564532E1,6.453980803E-1,-2.306229472E-1,2.410089672E-1
1.883558855E1,6.890726089E-1,-2.402100414E-1,2.442046702E-1
1.884552672E1,7.306166887E-1,-2.615146935E-1,2.378132790E-1
1.885546490E1,7.902697325E-1,-2.892107666E-1,2.250304818E-1
1.886537599E1,8.382052183E-1,-2.945369184E-1,2.229000032E-1
1.887531417E1,8.637708426E-1,-2.924064696E-1,2.260957062E-1
1.888525240E1,8.904016614E-1,-3.328853250E-1,2.324871123E-1
1.889523428E1,9.383371472E-1,-3.925383687E-1,2.410089672E-1
1.890517245E1,9.713593721E-1,-4.394086301E-1,2.463351339E-1
1.891511063E1,9.937292337E-1,-4.255605936E-1,2.548570037E-1
1.892504370E1,1.031012416E0,-4.234301150E-1,2.697702646E-1
1.893498183E1,1.089600205E0,-4.660394490E-1,2.857487500E-1
1.894492006E1,1.176949382E0,-5.022573471E-1,2.889444530E-1
1.895485000E1,1.250450373E0,-5.278229713E-1,2.889444530E-1
1.896478818E1,1.261102796E0,-5.395405293E-1,2.910749316E-1
1.897472636E1,1.246189475E0,-5.086487532E-1,2.932053804E-1
1.898466698E1,1.253646135E0,-4.724308550E-1,3.017272651E-1
1.899460516E1,1.299451113E0,-4.628437459E-1,3.027924895E-1
1.900454334E1,1.358038902E0,-5.075835586E-1,2.974663079E-1
1.901448178E1,1.428344369E0,-5.959978700E-1,2.804225981E-1
1.902441995E1,1.490127802E0,-6.556509137E-1,2.623136342E-1
1.903435813E1,1.503975868E0,-6.599118710E-1,2.516613007E-1
1.904428626E1,1.495453954E0,-6.183677912E-1,2.367480397E-1
1.905422438E1,1.502910614E0,-6.204982400E-1,2.388785034E-1
1.906416256E1,1.523150086E0,-6.354115009E-1,2.378132790E-1
1.907410308E1,1.573216081E0,-6.013240218E-1,2.303566486E-1
1.908404126E1,1.631803870E0,-6.492595077E-1,2.356828004E-1
1.909397943E1,1.649912834E0,-6.876079440E-1,2.282261699E-1
1.910390053E1,1.624347210E0,-6.247591972E-1,2.058562785E-1
1.911383865E1,1.600912094E0,-6.055849791E-1,1.909430176E-1
1.912377688E1,1.589194536E0,-5.970631242E-1,1.536598653E-1
1.913373391E1,1.559368014E0,-5.619103909E-1,9.720251709E-2
1.914367209E1,1.549780846E0,-5.768237114E-1,5.139749497E-2
1.915361026E1,1.552976608E0,-5.544537902E-1,-2.316881903E-2
1.916355183E1,1.550846100E0,-4.884093404E-1,-1.105179265E-1
1.917348995E1,1.557237506E0,-4.266258180E-1,-1.605838835E-1
1.918342813E1,1.499714971E0,-2.466014475E-1,-2.010627389E-1
1.919336787E1,1.454975128E0,-1.422086060E-1,-2.085193694E-1
1.920330605E1,1.449648976E0,-1.304910481E-1,-2.053236663E-1
1.921324422E1,1.449648976E0,-1.209039465E-1,-2.181064636E-1
1.922316167E1,1.436866164E0,-8.468602598E-2,-2.287587970E-1
1.923309980E1,1.415561557E0,-9.427312016E-2,-2.330197245E-1
1.924303803E1,1.394256830E0,-1.145125479E-1,-2.287587970E-1
1.925299349E1,1.400648236E0,-7.403369248E-2,-2.191716880E-1
1.926293167E1,1.441127181E0,-1.651111245E-2,-2.191716880E-1
1.927286985E1,1.466692686E0,-1.651111245E-2,-2.287587970E-1
1.928281188E1,1.456040382E0,-3.568530455E-2,-2.255630940E-1
1.929275006E1,1.451779485E0,-9.054481052E-3,-2.415415943E-1
1.930268823E1,1.486932158E0,3.781577200E-2,-3.054555655E-1
1.931260954E1,1.544454694E0,7.296846062E-2,-4.098483920E-1
1.932254766E1,1.609433889E0,1.219691783E-1,-5.153064728E-1
1.933248584E1,1.680804610E0,1.635132730E-1,-5.888075829E-1
1.934242178E1,1.771349311E0,1.432738453E-1,-6.143731475E-1
1.935235990E1,1.857766390E0,1.368824393E-1,-6.154384017E-1
1.936229803E1,1.911028028E0,1.752308309E-1,-6.228950024E-1
1.937225251E1,1.920615196E0,2.519276142E-1,-6.378082633E-1
1.938219068E1,1.898245215E0,3.115806580E-1,-6.047860384E-1
1.939212881E1,1.880136251E0,3.232982159E-1,-5.366111398E-1
1.940205829E1,1.903571367E0,2.998631001E-1,-4.652405083E-1
1.941199641E1,1.969615817E0,3.563204408E-1,-4.119788706E-1
1.942193459E1,2.044182062E0,5.139749050E-1,-3.810871243E-1
1.943186433E1,2.089987278E0,5.746932030E-1,-4.013265371E-1
1.944180245E1,2.066552162E0,5.363448262E-1,-4.439358711E-1
1.945174063E1,2.003703356E0,5.683017969E-1,-4.812190235E-1
1.946169021E1,1.947245955E0,6.758903265E-1,-5.280892849E-1
1.947162834E1,1.916354179E0,7.664351463E-1,-5.643072128E-1
1.948156646E1,1.909962773E0,8.282186985E-1,-5.312849879E-1
1.949150276E1,1.872679710E0,8.665670753E-1,-4.428706169E-1
1.950144089E1,1.791588783E0,8.985240459E-1,-3.384777904E-1
1.951137907E1,1.702109218E0,8.793498874E-1,-2.575200796E-1
1.952130053E1,1.619021058E0,7.951964736E-1,-2.138455361E-1
1.953123870E1,1.510367274E0,6.939992905E-1,-1.936061084E-1
1.954117688E1,1.408104897E0,6.055849791E-1,-1.989322603E-1
1.955113172E1,1.358038902E0,4.916050434E-1,-2.276935577E-1
1.956106990E1,1.352712750E0,3.041240275E-1,-2.447372824E-1
1.957100803E1,1.336734295E0,1.970681176E-2,-2.404763550E-1
1.958092855E1,1.262167931E0,-2.785584331E-1,-2.383458912E-1
1.959086667E1,1.162036061E0,-4.862788618E-1,-2.958684862E-1
1.960080480E1,1.073621750E0,-5.619103909E-1,-3.683043122E-1
1.961076573E1,9.820116758E-1,-6.013240218E-1,-3.842828274E-1
1.962070386E1,9.042496681E-1,-6.002588272E-1,-3.853480518E-1
1.963064204E1,8.595098853E-1,-5.832150578E-1,-3.960003853E-1
1.964057053E1,8.232919574E-1,-5.778889060E-1,-4.194355011E-1
1.965050865E1,7.774869800E-1,-5.214315653E-1,-4.492620230E-1
1.966044678E1,7.199643850E-1,-4.287562966E-1,-4.620448351E-1
1.967038042E1,6.688331962E-1,-3.424724042E-1,-4.322183132E-1
1.968031860E1,6.155715585E-1,-2.785584331E-1,-3.544562757E-1
1.969025672E1,5.335485935E-1,-2.423405200E-1,-2.404763550E-1
1.970019839E1,4.419385493E-1,-2.370143533E-1,-1.147788614E-1
1.971013652E1,3.705679476E-1,-2.423405200E-1,1.517957076E-2
1.972007464E1,3.300890923E-1,-2.125139832E-1,1.110505462E-1
1.973001349E1,2.885449827E-1,-1.699046642E-1,1.994648874E-1
1.973995167E1,2.256962508E-1,-1.752308309E-1,2.857487500E-1
1.974988980E1,1.447385401E-1,-2.316881865E-1,3.517931998E-1
1.975981563E1,5.845466256E-2,-3.030588031E-1,3.912068307E-1
1.976975381E1,-1.291595027E-2,-3.435376585E-1,3.965329826E-1
1.977969193E1,-1.002650559E-1,-4.085168540E-1,3.784240186E-1
1.978962886E1,-1.886793971E-1,-4.426043332E-1,3.038577139E-1
1.979956698E1,-2.600499988E-1,-3.946688473E-1,1.866820902E-1
1.980950516E1,-3.165073693E-1,-3.232982159E-1,6.204982474E-2
1.981948016E1,-3.569862247E-1,-3.520595133E-1,-2.849498391E-2
1.982941839E1,-3.718994856E-1,-4.703003764E-1,-8.921326697E-2
1.983935667E1,-3.676385581E-1,-5.352795720E-1,-1.360835135E-1
1.984928219E1,-3.591166735E-1,-4.916050434E-1,-1.531272531E-1
1.985922042E1,-3.410077095E-1,-4.095821083E-1,-1.318225861E-1
1.986915870E1,-2.856155932E-1,-3.360810280E-1,-7.643046975E-2
1.987908089E1,-1.982664913E-1,-2.551233172E-1,-8.255556226E-3
1.988901912E1,-1.162435561E-1,-1.699046642E-1,4.926702753E-2
1.989895740E1,-6.404713541E-2,-9.320788831E-2,8.761541545E-2
1.990890391E1,-4.167724028E-2,-2.929390781E-2,1.003982127E-1
1.991884214E1,-3.954677656E-2,3.994623944E-2,9.826774895E-2
1.992878042E1,-5.339480564E-2,1.230344176E-1,8.761541545E-2
